ID,Sex,Snellen,Distractor_Face,Face_Type_Code,cue_position_y_1,letter_string,letter_string_con,congruence,letter_string_position_y_1,Main_Trial_Loop.thisN,Main_Trial_Loop.thisIndex,buttonBox_Ex.keys,buttonBox_Ex.corr,buttonBox_Ex.rt
2,1,30,92,3,1.34,count,2,0,-1.34,0,149,6,1,0.9666118
2,1,30,12,3,1.34,wraxte,1,0,-1.34,1,254,5,1,0.6665967
2,1,30,172,2,1.34,wheiche,1,0,-1.34,2,225,5,1,0.8332733
2,1,30,143,1,1.34,klupsed,1,0,-1.34,3,363,5,1,0.6667181
2,1,30,140,2,1.34,poetry,2,0,-1.34,4,125,6,1,0.7500601
2,1,30,105,3,1.34,plal,1,0,-1.34,5,332,5,1,0.6665276
2,1,30,130,3,1.34,gulged,1,0,-1.34,6,234,6,0,0.9499387
2,1,30,21,3,1.34,evil,3,0,-1.34,7,43,6,1,0.716683
2,1,30,92,1,1.34,torture,3,-1,-1.34,8,94,6,1,0.6999529
2,1,30,22,3,1.34,violence,3,0,-1.34,9,38,6,1,0.6999756
2,1,30,141,1,1.34,bleills,1,0,-1.34,10,271,5,1,0.7499976
2,1,30,92,1,1.34,gwelched,1,0,-1.34,11,292,5,1,0.7332912
2,1,30,123,3,1.34,shreeff,1,0,-1.34,12,255,5,1,1.0332731
2,1,30,101,1,1.34,staufed,1,0,-1.34,13,285,6,0,1.3499363
2,1,30,22,3,1.34,skwyft,1,0,-1.34,14,335,5,1,0.8499675
2,1,30,29,2,1.34,victimized,3,1,-1.34,15,32,6,1,0.834331
2,1,30,117,1,1.34,leaping,2,0,-1.34,16,176,6,1,0.9499455
2,1,30,18,2,1.34,open,2,0,-1.34,17,105,6,1,0.683317
2,1,30,121,3,1.34,invited,2,0,-1.34,18,133,6,1,0.8833168
2,1,30,117,2,1.34,plal,1,0,-1.34,19,299,5,1,1.0332813
2,1,30,117,3,1.34,swizned,1,0,-1.34,20,355,5,1,1.0500663
2,1,30,173,2,1.34,sckwug,1,0,-1.34,21,317,5,1,0.8332936
2,1,30,103,1,1.34,klorche,1,0,-1.34,22,294,5,1,0.8166204
2,1,30,41,1,1.34,stouged,1,0,-1.34,23,293,6,0,0.9332053
2,1,30,41,1,1.34,slash,3,-1,-1.34,24,95,6,1,0.9666267
2,1,30,41,1,1.34,win,2,0,-1.34,25,194,6,1,0.7833305
2,1,30,68,2,1.34,art,2,0,-1.34,26,114,6,1,0.6665206
2,1,30,41,2,1.34,win,2,0,-1.34,27,128,6,1,0.5333148
2,1,30,29,2,1.34,greet,2,0,-1.34,28,131,6,1,0.7000445
2,1,30,121,2,1.34,bleills,1,0,-1.34,29,205,5,1,0.7000057
2,1,30,125,1,1.34,hate,3,-1,-1.34,30,78,5,0,0.9000177
2,1,30,103,3,1.34,mutilated,3,0,-1.34,31,54,6,1,1.0666158
2,1,30,103,2,1.34,blood,3,1,-1.34,32,18,6,1,0.7333068
2,1,30,26,1,1.34,shoot,3,-1,-1.34,33,93,6,1,0.8508433
2,1,30,101,1,1.34,staufed,1,0,-1.34,34,384,6,0,1.4332872
2,1,30,31,2,1.34,prize,2,0,-1.34,35,130,6,1,0.9676632
2,1,30,18,2,1.34,clewm,1,0,-1.34,36,303,5,1,0.8333089
2,1,30,141,1,1.34,bleills,1,0,-1.34,37,370,5,1,1.3166149
2,1,30,63,2,1.34,gwelched,1,0,-1.34,38,226,5,1,1.2667022
2,1,30,141,2,1.34,evil,3,1,-1.34,39,10,6,1,1.0166774
2,1,30,141,3,1.34,beat,3,0,-1.34,40,48,6,1,0.7503236
2,1,30,108,3,1.34,suffering,3,0,-1.34,41,39,6,1,0.7999272
2,1,30,138,2,1.34,process,2,0,-1.34,42,102,6,1,0.7012466
2,1,30,173,1,1.34,scream,3,-1,-1.34,43,88,6,1,0.7667163
2,1,30,29,3,1.34,modulation,2,0,-1.34,44,140,6,1,0.6834958
2,1,30,130,3,1.34,gulged,1,0,-1.34,45,333,6,0,0.5833162
2,1,30,108,1,1.34,choke,3,-1,-1.34,46,82,6,1,0.6176368
2,1,30,121,2,1.34,bleills,1,0,-1.34,47,304,5,1,0.5833951
2,1,30,104,2,1.34,shreeff,1,0,-1.34,48,321,5,1,0.8833757
2,1,30,108,3,1.34,open,2,0,-1.34,49,138,6,1,0.7666082
2,1,30,141,3,1.34,ghoond,1,0,-1.34,50,246,5,1,0.6999536
2,1,30,121,2,1.34,threatened,3,1,-1.34,51,7,6,1,0.7833244
2,1,30,172,1,1.34,panicky,3,-1,-1.34,52,75,5,0,1.383224
2,1,30,41,2,1.34,slash,3,1,-1.34,53,29,6,1,0.9833109
2,1,30,143,3,1.34,thwaivvs,1,0,-1.34,54,342,5,1,0.9165413
2,1,30,12,2,1.34,meekes,1,0,-1.34,55,305,5,1,0.8499422
2,1,30,63,1,1.34,comment,2,0,-1.34,56,188,6,1,0.8333213
2,1,30,31,3,1.34,silent,2,0,-1.34,57,151,6,1,1.0167161
2,1,30,101,3,1.34,doom,3,0,-1.34,58,46,6,1,0.8999324
2,1,30,121,1,1.34,kill,3,-1,-1.34,59,83,6,1,0.716556
2,1,30,92,2,1.34,slurms,1,0,-1.34,60,211,5,1,1.1167194
2,1,30,128,3,1.34,wheiche,1,0,-1.34,61,357,5,1,0.7839137
2,1,30,68,1,1.34,skwyft,1,0,-1.34,62,368,5,1,0.816622
2,1,30,125,3,1.34,kroit,1,0,-1.34,63,263,5,1,0.6499514
2,1,30,26,1,1.34,wheiche,1,0,-1.34,64,390,5,1,0.6500706
2,1,30,103,3,1.34,staufed,1,0,-1.34,65,351,5,1,0.7999603
2,1,30,22,3,1.34,skwyft,1,0,-1.34,66,236,5,1,0.7507866
2,1,30,128,2,1.34,activities,2,0,-1.34,67,115,6,1,0.7333163
2,1,30,33,1,1.34,kwerdged,1,0,-1.34,68,373,5,1,0.7500472
2,1,30,172,3,1.34,sckrerphth,1,0,-1.34,69,346,5,1,0.6832899
2,1,30,140,1,1.34,blood,3,-1,-1.34,70,84,6,1,0.6667548
2,1,30,63,1,1.34,wraxte,1,0,-1.34,71,386,5,1,0.8511448
2,1,30,22,2,1.34,klupsed,1,0,-1.34,72,297,5,1,1.2166084
2,1,30,172,2,1.34,shoot,3,1,-1.34,73,27,6,1,0.8167281
2,1,30,130,2,1.34,death,3,1,-1.34,74,25,6,1,0.6833866
2,1,30,173,1,1.34,surnd,1,0,-1.34,75,286,5,1,0.5666965
2,1,30,18,1,1.34,formal,2,0,-1.34,76,167,6,1,0.8499588
2,1,30,123,1,1.34,leisure,2,0,-1.34,77,190,6,1,0.8165971
2,1,30,63,2,1.34,gwelched,1,0,-1.34,78,325,5,1,1.0333015
2,1,30,140,2,1.34,agonized,3,1,-1.34,79,26,6,1,0.6832478
2,1,30,22,2,1.34,klupsed,1,0,-1.34,80,198,5,1,0.9165636
2,1,30,101,1,1.34,assimilated,2,0,-1.34,81,186,6,1,0.8666477
2,1,30,172,1,1.34,sitter,2,0,-1.34,82,174,6,1,0.7666155
2,1,30,4,3,1.34,puppet,2,0,-1.34,83,152,6,1,0.7000877
2,1,30,131,3,1.34,prize,2,0,-1.34,84,163,6,1,0.549964
2,1,30,140,3,1.34,ability,2,0,-1.34,85,139,6,1,0.7333816
2,1,30,69,2,1.34,staufed,1,0,-1.34,86,318,5,1,0.783387
2,1,30,104,1,1.34,ghoond,1,0,-1.34,87,378,5,1,0.9333802
2,1,30,132,3,1.34,jeeched,1,0,-1.34,88,249,5,1,1.0499311
2,1,30,69,1,1.34,sckermbth,1,0,-1.34,89,265,5,1,0.9165507
2,1,30,131,1,1.34,modulation,2,0,-1.34,90,173,6,1,0.6499342
2,1,30,104,1,1.34,ghoond,1,0,-1.34,91,279,5,1,0.6833558
2,1,30,128,3,1.34,satisfied,2,0,-1.34,92,159,6,1,0.700583
2,1,30,101,2,1.34,surnd,1,0,-1.34,93,220,5,1,0.833404
2,1,30,33,1,1.34,warm,2,0,-1.34,94,175,6,1,1.0167087
2,1,30,125,1,1.34,mandate,2,0,-1.34,95,177,6,1,0.8332823
2,1,30,12,3,1.34,wraxte,1,0,-1.34,96,353,5,1,0.6333319
2,1,30,141,1,1.34,ability,2,0,-1.34,97,172,6,1,0.7165712
2,1,30,132,1,1.34,strangle,3,-1,-1.34,98,85,6,1,0.5665917
2,1,30,68,1,1.34,skwyft,1,0,-1.34,99,269,5,1,0.5833178
2,1,30,140,1,1.34,roller,2,0,-1.34,100,183,6,1,0.550049
2,1,30,104,3,1.34,stab,3,0,-1.34,101,37,6,1,0.734442
2,1,30,33,3,1.34,panicky,3,0,-1.34,102,42,5,0,1.5333621
2,1,30,104,3,1.34,zuinte,1,0,-1.34,103,235,5,1,1.3167065
2,1,30,31,1,1.34,shreeff,1,0,-1.34,104,387,5,1,1.0331643
2,1,30,21,2,1.34,kill,3,1,-1.34,105,17,6,1,0.7499114
2,1,30,121,3,1.34,sckermbth,1,0,-1.34,106,331,5,1,0.6166304
2,1,30,105,2,1.34,thwaivvs,1,0,-1.34,107,210,5,1,1.185635
2,1,30,172,3,1.34,choke,3,0,-1.34,108,49,6,1,0.9333214
2,1,30,123,2,1.34,sckermbth,1,0,-1.34,109,298,5,1,0.7667265
2,1,30,63,2,1.34,concert,2,0,-1.34,110,127,6,1,0.7334011
2,1,30,92,3,1.34,troaphed,1,0,-1.34,111,347,5,1,0.9181723
2,1,30,12,1,1.34,prize,2,0,-1.34,112,196,6,1,0.7667443
2,1,30,130,3,1.34,wound,3,0,-1.34,113,36,6,1,0.6499465
2,1,30,143,3,1.34,hate,3,0,-1.34,114,45,6,1,0.6833366
2,1,30,141,2,1.34,warm,2,0,-1.34,115,109,6,1,0.5166283
2,1,30,128,1,1.34,open,2,0,-1.34,116,171,6,1,0.635343
2,1,30,63,3,1.34,klorche,1,0,-1.34,117,261,5,1,0.7341614
2,1,30,33,3,1.34,sitter,2,0,-1.34,118,141,6,1,0.6000069
2,1,30,101,3,1.34,signals,2,0,-1.34,119,145,6,1,0.7000452
2,1,30,131,1,1.34,terrified,3,-1,-1.34,120,74,6,1,0.7999319
2,1,30,131,2,1.34,klorche,1,0,-1.34,121,228,5,1,0.7665355
2,1,30,131,1,1.34,meekes,1,0,-1.34,122,371,5,1,0.76766
2,1,30,92,2,1.34,doom,3,1,-1.34,123,13,6,1,0.7000192
2,1,30,128,2,1.34,sckrerphth,1,0,-1.34,124,214,5,1,0.5353532
2,1,30,138,3,1.34,torture,3,0,-1.34,125,61,6,1,0.7000524
2,1,30,31,3,1.34,sckroax,1,0,-1.34,126,349,5,1,0.7166902
2,1,30,29,3,1.34,meekes,1,0,-1.34,127,338,5,1,0.8332915
2,1,30,108,2,1.34,sitter,2,0,-1.34,128,108,6,1,0.7166476
2,1,30,141,1,1.34,threatened,3,-1,-1.34,129,73,6,1,0.7165392
2,1,30,33,3,1.34,thwipte,1,0,-1.34,130,240,5,1,0.6676461
2,1,30,141,3,1.34,art,2,0,-1.34,131,147,6,1,0.7332885
2,1,30,128,3,1.34,shoot,3,0,-1.34,132,60,6,1,0.6180504
2,1,30,18,2,1.34,suffering,3,1,-1.34,133,6,6,1,0.6833438
2,1,30,92,3,1.34,troaphed,1,0,-1.34,134,248,5,1,1.050058
2,1,30,41,3,1.34,shrylk,1,0,-1.34,135,245,5,1,0.9833841
2,1,30,173,3,1.34,win,2,0,-1.34,136,161,6,1,0.6999525
2,1,30,92,2,1.34,signals,2,0,-1.34,137,112,6,1,0.584418
2,1,30,92,2,1.34,slurms,1,0,-1.34,138,310,6,0,0.7666637
2,1,30,103,2,1.34,jeeched,1,0,-1.34,139,315,5,1,1.0999929
2,1,30,105,3,1.34,assault,3,0,-1.34,140,35,6,1,0.7666163
2,1,30,131,2,1.34,klorche,1,0,-1.34,141,327,5,1,0.8499391
2,1,30,140,1,1.34,jeeched,1,0,-1.34,142,381,6,0,1.6833624
2,1,30,132,3,1.34,blood,3,0,-1.34,143,51,6,1,1.6832682
2,1,30,31,2,1.34,shoatt,1,0,-1.34,144,229,5,1,0.6999951
2,1,30,92,3,1.34,kill,3,0,-1.34,145,50,6,1,0.8026551
2,1,30,31,2,1.34,intimated,3,1,-1.34,146,31,6,1,0.8012757
2,1,30,172,3,1.34,sckrerphth,1,0,-1.34,147,247,5,1,0.6833861
2,1,30,173,1,1.34,surnd,1,0,-1.34,148,385,5,1,0.8832746
2,1,30,29,2,1.34,kroit,1,0,-1.34,149,329,5,1,0.5833266
2,1,30,131,3,1.34,shoatt,1,0,-1.34,150,262,5,1,0.6833173
2,1,30,130,2,1.34,swizned,1,0,-1.34,151,223,5,1,0.9665468
2,1,30,173,2,1.34,puppet,2,0,-1.34,152,119,6,1,0.5332221
2,1,30,132,2,1.34,leaping,2,0,-1.34,153,110,6,1,0.6167083
2,1,30,125,1,1.34,thwaivvs,1,0,-1.34,154,375,5,1,1.0832421
2,1,30,63,3,1.34,refuge,2,0,-1.34,155,162,6,1,0.6666498
2,1,30,108,2,1.34,thwipte,1,0,-1.34,156,207,5,1,0.5999558
2,1,30,105,2,1.34,mandate,2,0,-1.34,157,111,6,1,0.9833158
2,1,30,128,3,1.34,wheiche,1,0,-1.34,158,258,5,1,0.6833186
2,1,30,4,1,1.34,scroines,1,0,-1.34,159,290,5,1,0.883305
2,1,30,21,1,1.34,process,2,0,-1.34,160,168,6,1,1.1498444
2,1,30,121,3,1.34,injury,3,0,-1.34,161,34,6,1,0.7832793
2,1,30,68,3,1.34,klupsed,1,0,-1.34,162,231,5,1,0.6499429
2,1,30,138,3,1.34,concert,2,0,-1.34,163,160,6,1,0.516625
2,1,30,63,1,1.34,murder,3,-1,-1.34,164,89,6,1,0.5515261
2,1,30,21,3,1.34,kwerdged,1,0,-1.34,165,241,5,1,0.6333142
2,1,30,138,1,1.34,runner,2,0,-1.34,166,179,6,1,0.633328
2,1,30,131,3,1.34,intimated,3,0,-1.34,167,64,6,1,0.7332899
2,1,30,29,1,1.34,sckwug,1,0,-1.34,168,284,5,1,0.6500826
2,1,30,103,2,1.34,roller,2,0,-1.34,169,117,6,1,0.483256
2,1,30,21,2,1.34,troaphed,1,0,-1.34,170,314,5,1,0.9339374
2,1,30,4,2,1.34,sckroax,1,0,-1.34,171,217,6,0,0.5999594
2,1,30,143,2,1.34,runner,2,0,-1.34,172,113,6,1,1.116632
2,1,30,140,3,1.34,bleills,1,0,-1.34,173,238,5,1,0.6498469
2,1,30,22,2,1.34,facilitate,2,0,-1.34,174,99,6,1,0.7859791
2,1,30,104,2,1.34,retold,2,0,-1.34,175,123,6,1,0.8499552
2,1,30,41,3,1.34,runner,2,0,-1.34,176,146,6,1,0.4666486
2,1,30,121,1,1.34,troaphed,1,0,-1.34,177,281,6,0,0.8833809
2,1,30,21,2,1.34,count,2,0,-1.34,178,116,6,1,0.5166253
2,1,30,105,2,1.34,thwaivvs,1,0,-1.34,179,309,5,1,0.616584
2,1,30,104,3,1.34,customer,2,0,-1.34,180,136,6,1,0.5332595
2,1,30,26,2,1.34,violence,3,1,-1.34,181,5,6,1,0.5003546
2,1,30,140,3,1.34,bleills,1,0,-1.34,182,337,6,0,0.3500501
2,1,30,92,1,1.34,gwelched,1,0,-1.34,183,391,5,1,0.8999411
2,1,30,108,3,1.34,clewm,1,0,-1.34,184,237,5,1,0.6667166
2,1,30,140,1,1.34,jeeched,1,0,-1.34,185,282,5,1,0.7166169
2,1,30,22,1,1.34,customer,2,0,-1.34,186,169,6,1,0.8508298
2,1,30,22,1,1.34,stab,3,-1,-1.34,187,70,6,1,0.8167256
2,1,30,69,3,1.34,poetry,2,0,-1.34,188,158,6,1,0.5667294
2,1,30,18,1,1.34,plal,1,0,-1.34,189,365,5,1,0.7166778
2,1,30,123,2,1.34,injury,3,1,-1.34,190,1,6,1,0.6832793
2,1,30,69,3,1.34,scroines,1,0,-1.34,191,356,5,1,0.6832824
2,1,30,108,2,1.34,thwipte,1,0,-1.34,192,306,5,1,0.8165535
2,1,30,33,1,1.34,evil,3,-1,-1.34,193,76,6,1,0.7833182
2,1,30,138,3,1.34,gwelched,1,0,-1.34,194,259,5,1,0.716666
2,1,30,125,2,1.34,stab,3,1,-1.34,195,4,6,1,0.8833813
2,1,30,31,3,1.34,sckroax,1,0,-1.34,196,250,5,1,0.6499566
2,1,30,132,2,1.34,pawp,1,0,-1.34,197,209,5,1,1.0165886
2,1,30,18,1,1.34,plal,1,0,-1.34,198,266,5,1,0.9000865
2,1,30,41,1,1.34,stouged,1,0,-1.34,199,392,5,1,0.9333001
2,1,30,26,3,1.34,scream,3,0,-1.34,200,55,6,1,0.6999515
2,1,30,128,2,1.34,choke,3,1,-1.34,201,16,6,1,0.9000506
2,1,30,21,1,1.34,gulged,1,0,-1.34,202,366,6,0,0.649967
2,1,30,12,1,1.34,shoatt,1,0,-1.34,203,295,5,1,0.6000869
2,1,30,68,1,1.34,over,2,0,-1.34,204,170,6,1,0.9166356
2,1,30,125,2,1.34,customer,2,0,-1.34,205,103,6,1,0.7166171
2,1,30,117,2,1.34,assault,3,1,-1.34,206,2,6,1,0.5333289
2,1,30,4,2,1.34,sckroax,1,0,-1.34,207,316,5,1,0.5833494
2,1,30,26,2,1.34,skwyft,1,0,-1.34,208,203,5,1,0.8000233
2,1,30,121,2,1.34,ability,2,0,-1.34,209,106,6,1,0.6682639
2,1,30,22,1,1.34,zuinte,1,0,-1.34,210,367,5,1,0.6166874
2,1,30,26,1,1.34,satisfied,2,0,-1.34,211,192,6,1,0.6000355
2,1,30,108,1,1.34,sckrerphth,1,0,-1.34,212,280,5,1,0.6843748
2,1,30,132,1,1.34,sckroax,1,0,-1.34,213,382,5,1,0.5667054
2,1,30,143,1,1.34,klupsed,1,0,-1.34,214,264,5,1,0.4999551
2,1,30,29,3,1.34,terrified,3,0,-1.34,215,41,6,1,0.5183399
2,1,30,4,3,1.34,sckwug,1,0,-1.34,216,350,5,1,0.5665545
2,1,30,143,2,1.34,shrylk,1,0,-1.34,217,311,5,1,0.6500617
2,1,30,138,2,1.34,gulged,1,0,-1.34,218,201,6,0,1.0000557
2,1,30,138,2,1.34,gulged,1,0,-1.34,219,300,6,0,0.7499922
2,1,30,130,1,1.34,slurms,1,0,-1.34,220,277,6,0,0.7000157
2,1,30,117,3,1.34,swizned,1,0,-1.34,221,256,5,1,0.6332358
2,1,30,69,2,1.34,staufed,1,0,-1.34,222,219,5,1,0.5332985
2,1,30,101,2,1.34,phone,2,0,-1.34,223,121,6,1,0.5833093
2,1,30,172,2,1.34,satisfied,2,0,-1.34,224,126,6,1,0.6667083
2,1,30,68,2,1.34,beat,3,1,-1.34,225,15,6,1,0.5666183
2,1,30,103,3,1.34,assimilated,2,0,-1.34,226,153,6,1,0.5165428
2,1,30,130,1,1.34,slurms,1,0,-1.34,227,376,5,1,0.6165612
2,1,30,104,2,1.34,shreeff,1,0,-1.34,228,222,5,1,1.233289
2,1,30,21,2,1.34,troaphed,1,0,-1.34,229,215,5,1,1.0166108
2,1,30,26,2,1.34,skwyft,1,0,-1.34,230,302,5,1,0.5500147
2,1,30,4,3,1.34,sckwug,1,0,-1.34,231,251,5,1,0.5332732
2,1,30,125,2,1.34,zuinte,1,0,-1.34,232,301,5,1,0.4834197
2,1,30,105,1,1.34,greet,2,0,-1.34,233,197,5,0,0.800058
2,1,30,173,1,1.34,phone,2,0,-1.34,234,187,6,1,0.9187946
2,1,30,21,1,1.34,wound,3,-1,-1.34,235,69,6,1,0.7340471
2,1,30,173,2,1.34,sckwug,1,0,-1.34,236,218,5,1,0.7513273
2,1,30,123,2,1.34,invited,2,0,-1.34,237,100,6,1,0.6847164
2,1,30,22,3,1.34,over,2,0,-1.34,238,137,6,1,0.8667686
2,1,30,172,2,1.34,wheiche,1,0,-1.34,239,324,5,1,0.5833176
2,1,30,69,1,1.34,injury,3,-1,-1.34,240,67,6,1,0.600043
2,1,30,132,3,1.34,jeeched,1,0,-1.34,241,348,6,0,1.0498843
2,1,30,132,1,1.34,sckroax,1,0,-1.34,242,283,5,1,1.0333211
2,1,30,26,3,1.34,surnd,1,0,-1.34,243,352,5,1,0.8836094
2,1,30,104,3,1.34,zuinte,1,0,-1.34,244,334,5,1,0.6999537
2,1,30,172,1,1.34,thwipte,1,0,-1.34,245,273,5,1,0.5332938
2,1,30,123,1,1.34,swizned,1,0,-1.34,246,388,5,1,0.4665562
2,1,30,108,3,1.34,clewm,1,0,-1.34,247,336,5,1,0.5166573
2,1,30,172,3,1.34,activities,2,0,-1.34,248,148,6,1,0.7331982
2,1,30,130,2,1.34,swizned,1,0,-1.34,249,322,5,1,0.6500547
2,1,30,63,3,1.34,terrorized,3,0,-1.34,250,63,6,1,0.5999696
2,1,30,68,3,1.34,threat,3,0,-1.34,251,33,6,1,0.5500613
2,1,30,125,3,1.34,kroit,1,0,-1.34,252,362,5,1,0.6333923
2,1,30,105,2,1.34,hate,3,1,-1.34,253,12,6,1,0.6666585
2,1,30,69,2,1.34,assimilated,2,0,-1.34,254,120,6,1,1.0665396
2,1,30,143,3,1.34,mandate,2,0,-1.34,255,144,6,1,0.9499976
2,1,30,128,1,1.34,clewm,1,0,-1.34,256,369,5,1,0.6500428
2,1,30,104,2,1.34,fatal,3,1,-1.34,257,24,6,1,0.6832898
2,1,30,130,2,1.34,leisure,2,0,-1.34,258,124,6,1,0.8166014
2,1,30,173,2,1.34,agony,3,1,-1.34,259,20,6,1,0.8165692
2,1,30,69,3,1.34,scroines,1,0,-1.34,260,257,5,1,0.6165542
2,1,30,128,2,1.34,sckrerphth,1,0,-1.34,261,313,5,1,1.0499357
2,1,30,130,3,1.34,process,2,0,-1.34,262,135,6,1,0.6332876
2,1,30,123,1,1.34,death,3,-1,-1.34,263,91,6,1,0.6833093
2,1,30,12,2,1.34,meekes,1,0,-1.34,264,206,5,1,0.6832691
2,1,30,140,3,1.34,threatened,3,0,-1.34,265,40,6,1,0.4833037
2,1,30,173,3,1.34,stouged,1,0,-1.34,266,260,5,1,0.6666372
2,1,30,123,2,1.34,sckermbth,1,0,-1.34,267,199,5,1,0.5332293
2,1,30,26,1,1.34,wheiche,1,0,-1.34,268,291,5,1,0.5833881
2,1,30,68,3,1.34,facilitate,2,0,-1.34,269,132,5,0,0.4500256
2,1,30,132,1,1.34,silent,2,0,-1.34,270,184,6,1,0.666669
2,1,30,4,1,1.34,agonized,3,-1,-1.34,271,92,6,1,0.5500487
2,1,30,105,1,1.34,kroit,1,0,-1.34,272,395,5,1,0.5507825
2,1,30,29,1,1.34,puppet,2,0,-1.34,273,185,6,1,0.6165189
2,1,30,103,3,1.34,staufed,1,0,-1.34,274,252,5,1,0.6999772
2,1,30,125,2,1.34,zuinte,1,0,-1.34,275,202,5,1,0.6167266
2,1,30,12,1,1.34,intimated,3,-1,-1.34,276,97,6,1,0.5832887
2,1,30,103,2,1.34,jeeched,1,0,-1.34,277,216,5,1,0.6333578
2,1,30,33,2,1.34,wraxte,1,0,-1.34,278,221,5,1,0.5833108
2,1,30,18,2,1.34,clewm,1,0,-1.34,279,204,5,1,0.5000256
2,1,30,18,3,1.34,pawp,1,0,-1.34,280,242,5,1,0.349946
2,1,30,18,3,1.34,leaping,2,0,-1.34,281,143,6,1,0.7003721
2,1,30,138,1,1.34,shrylk,1,0,-1.34,282,278,5,1,0.5832243
2,1,30,128,1,1.34,clewm,1,0,-1.34,283,270,5,1,1.1666591
2,1,30,138,1,1.34,massacre,3,-1,-1.34,284,80,6,1,0.7666831
2,1,30,63,1,1.34,wraxte,1,0,-1.34,285,287,5,1,0.7333303
2,1,30,103,1,1.34,klorche,1,0,-1.34,286,393,5,1,0.583298
2,1,30,21,3,1.34,warm,2,0,-1.34,287,142,6,1,0.5666286
2,1,30,12,3,1.34,murder,3,0,-1.34,288,56,6,1,0.5333244
2,1,30,68,3,1.34,klupsed,1,0,-1.34,289,330,5,1,0.5500612
2,1,30,33,2,1.34,wraxte,1,0,-1.34,290,320,5,1,0.766663
2,1,30,140,2,1.34,scroines,1,0,-1.34,291,323,5,1,0.5667065
2,1,30,103,1,1.34,terrorized,3,-1,-1.34,292,96,6,1,0.5832009
2,1,30,12,1,1.34,shoatt,1,0,-1.34,293,394,5,1,0.7519806
2,1,30,4,2,1.34,strangle,3,1,-1.34,294,19,6,1,0.5856189
2,1,30,22,2,1.34,threat,3,1,-1.34,295,0,6,1,0.8000355
2,1,30,41,2,1.34,stouged,1,0,-1.34,296,227,5,1,0.8184407
2,1,30,141,2,1.34,kwerdged,1,0,-1.34,297,307,5,1,0.6666876
2,1,30,123,3,1.34,fatal,3,0,-1.34,298,57,6,1,0.5665677
2,1,30,132,3,1.34,roller,2,0,-1.34,299,150,6,1,0.4999638
2,1,30,33,1,1.34,kwerdged,1,0,-1.34,300,274,5,1,0.6000455
2,1,30,12,2,1.34,modulation,2,0,-1.34,301,107,6,1,0.7332877
2,1,30,31,2,1.34,shoatt,1,0,-1.34,302,328,5,1,0.5500262
2,1,30,21,3,1.34,kwerdged,1,0,-1.34,303,340,5,1,0.6166287
2,1,30,69,3,1.34,agonized,3,0,-1.34,304,59,6,1,1.01665
2,1,30,31,1,1.34,retold,2,0,-1.34,305,189,6,1,0.8506709
2,1,30,125,3,1.34,greet,2,0,-1.34,306,164,6,1,0.6999475
2,1,30,105,3,1.34,formal,2,0,-1.34,307,134,6,1,0.6667187
2,1,30,108,2,1.34,panicky,3,1,-1.34,308,9,6,1,0.6500913
2,1,30,131,3,1.34,shoatt,1,0,-1.34,309,361,5,1,0.5665596
2,1,30,117,3,1.34,death,3,0,-1.34,310,58,6,1,0.666571
2,1,30,117,1,1.34,pawp,1,0,-1.34,311,275,5,1,0.599891
2,1,30,29,3,1.34,meekes,1,0,-1.34,312,239,5,1,0.816676
2,1,30,103,1,1.34,refuge,2,0,-1.34,313,195,6,1,0.9499347
2,1,30,68,1,1.34,violence,3,-1,-1.34,314,71,6,1,0.7000439
2,1,30,173,3,1.34,slash,3,0,-1.34,315,62,6,1,0.6499535
2,1,30,123,1,1.34,swizned,1,0,-1.34,316,289,5,1,0.6167312
2,1,30,105,1,1.34,kroit,1,0,-1.34,317,296,5,1,0.6000862
2,1,30,138,3,1.34,gwelched,1,0,-1.34,318,358,5,1,0.7500618
2,1,30,101,2,1.34,scream,3,1,-1.34,319,22,6,1,0.5499184
2,1,30,105,1,1.34,victimized,3,-1,-1.34,320,98,6,1,0.6999767
2,1,30,173,3,1.34,stouged,1,0,-1.34,321,359,5,1,0.6676474
2,1,30,143,2,1.34,massacre,3,1,-1.34,322,14,6,1,0.53329
2,1,30,143,3,1.34,thwaivvs,1,0,-1.34,323,243,5,1,0.7665329
2,1,30,26,2,1.34,over,2,0,-1.34,324,104,6,1,0.5999083
2,1,30,141,3,1.34,ghoond,1,0,-1.34,325,345,5,1,0.8166409
2,1,30,69,1,1.34,sckermbth,1,0,-1.34,326,364,5,1,0.550047
2,1,30,121,1,1.34,troaphed,1,0,-1.34,327,380,5,1,0.8999533
2,1,30,26,3,1.34,phone,2,0,-1.34,328,154,6,1,0.583331
2,1,30,29,2,1.34,kroit,1,0,-1.34,329,230,5,1,0.6179376
2,1,30,117,2,1.34,formal,2,0,-1.34,330,101,6,1,0.5334043
2,1,30,143,2,1.34,shrylk,1,0,-1.34,331,212,5,1,0.499951
2,1,30,121,1,1.34,count,2,0,-1.34,332,182,6,1,0.6665404
2,1,30,131,1,1.34,meekes,1,0,-1.34,333,272,5,1,0.5998658
2,1,30,105,3,1.34,plal,1,0,-1.34,334,233,5,1,0.6832672
2,1,30,172,1,1.34,thwipte,1,0,-1.34,335,372,5,1,0.6499582
2,1,30,143,1,1.34,facilitate,2,0,-1.34,336,165,6,1,0.7333724
2,1,30,117,1,1.34,pawp,1,0,-1.34,337,374,5,1,0.5681461
2,1,30,117,3,1.34,leisure,2,0,-1.34,338,157,6,1,0.7500123
2,1,30,117,1,1.34,devil,3,-1,-1.34,339,77,6,1,0.8166092
2,1,30,31,1,1.34,shreeff,1,0,-1.34,340,288,5,1,0.5666795
2,1,30,128,1,1.34,suffering,3,-1,-1.34,341,72,6,1,0.6332628
2,1,30,141,2,1.34,kwerdged,1,0,-1.34,342,208,5,1,0.6000721
2,1,30,68,2,1.34,ghoond,1,0,-1.34,343,312,5,1,0.766715
2,1,30,131,2,1.34,refuge,2,0,-1.34,344,129,6,1,0.7165925
2,1,30,69,1,1.34,invited,2,0,-1.34,345,166,6,1,0.7333129
2,1,30,108,1,1.34,sckrerphth,1,0,-1.34,346,379,5,1,0.6166197
2,1,30,132,2,1.34,devil,3,1,-1.34,347,11,6,1,0.5500521
2,1,30,140,2,1.34,scroines,1,0,-1.34,348,224,5,1,0.9332916
2,1,30,4,1,1.34,poetry,2,0,-1.34,349,191,6,1,0.5999422
2,1,30,4,2,1.34,silent,2,0,-1.34,350,118,6,1,0.6666491
2,1,30,131,2,1.34,terrorized,3,1,-1.34,351,30,6,1,0.7666778
2,1,30,33,2,1.34,comment,2,0,-1.34,352,122,6,1,0.5166893
2,1,30,41,2,1.34,stouged,1,0,-1.34,353,326,5,1,0.7499308
2,1,30,108,1,1.34,activities,2,0,-1.34,354,181,6,1,0.5166812
2,1,30,63,2,1.34,torture,3,1,-1.34,355,28,6,1,0.5832967
2,1,30,31,3,1.34,strangle,3,0,-1.34,356,52,6,1,0.9667221
2,1,30,123,3,1.34,retold,2,0,-1.34,357,156,6,1,0.7000099
2,1,30,117,2,1.34,plal,1,0,-1.34,358,200,5,1,0.6333651
2,1,30,121,3,1.34,sckermbth,1,0,-1.34,359,232,5,1,0.6500453
2,1,30,138,1,1.34,shrylk,1,0,-1.34,360,377,5,1,0.5166825
2,1,30,33,3,1.34,thwipte,1,0,-1.34,361,339,5,1,0.5000613
2,1,30,130,1,1.34,signals,2,0,-1.34,362,178,6,1,0.7166364
2,1,30,18,1,1.34,assault,3,-1,-1.34,363,68,6,1,0.6333207
2,1,30,101,2,1.34,surnd,1,0,-1.34,364,319,5,1,0.6665942
2,1,30,33,2,1.34,murder,3,1,-1.34,365,23,6,1,0.5332997
2,1,30,104,1,1.34,beat,3,-1,-1.34,366,81,6,1,0.7167215
2,1,30,104,1,1.34,art,2,0,-1.34,367,180,6,1,0.4999496
2,1,30,68,2,1.34,ghoond,1,0,-1.34,368,213,5,1,0.6332757
2,1,30,101,1,1.34,mutilated,3,-1,-1.34,369,87,6,1,0.6675929
2,1,30,41,3,1.34,shrylk,1,0,-1.34,370,344,5,1,0.6333642
2,1,30,125,1,1.34,thwaivvs,1,0,-1.34,371,276,5,1,0.6165887
2,1,30,22,1,1.34,zuinte,1,0,-1.34,372,268,5,1,0.6166981
2,1,30,63,3,1.34,klorche,1,0,-1.34,373,360,5,1,0.6332743
2,1,30,21,1,1.34,gulged,1,0,-1.34,374,267,5,1,0.8166997
2,1,30,12,3,1.34,comment,2,0,-1.34,375,155,6,1,0.7836748
2,1,30,132,2,1.34,pawp,1,0,-1.34,376,308,5,1,0.8832879
2,1,30,29,1,1.34,sckwug,1,0,-1.34,377,383,5,1,0.59995
2,1,30,125,3,1.34,victimized,3,0,-1.34,378,65,6,1,0.5668603
2,1,30,12,2,1.34,terrified,3,1,-1.34,379,8,6,1,0.6000462
2,1,30,31,1,1.34,fatal,3,-1,-1.34,380,90,6,1,0.5500481
2,1,30,123,3,1.34,shreeff,1,0,-1.34,381,354,5,1,0.6167265
2,1,30,138,2,1.34,wound,3,1,-1.34,382,3,6,1,0.9167426
2,1,30,143,1,1.34,threat,3,-1,-1.34,383,66,6,1,0.4166914
2,1,30,29,1,1.34,agony,3,-1,-1.34,384,86,6,1,0.4499271
2,1,30,69,2,1.34,mutilated,3,1,-1.34,385,21,6,1,0.716625
2,1,30,101,3,1.34,slurms,1,0,-1.34,386,343,6,0,0.6833296
2,1,30,4,1,1.34,scroines,1,0,-1.34,387,389,5,1,0.7166591
2,1,30,18,3,1.34,devil,3,0,-1.34,388,44,6,1,0.6333972
2,1,30,18,3,1.34,pawp,1,0,-1.34,389,341,5,1,0.6333763
2,1,30,101,3,1.34,slurms,1,0,-1.34,390,244,6,0,1.4499998
2,1,30,130,1,1.34,doom,3,-1,-1.34,391,79,6,1,0.7665207
2,1,30,4,3,1.34,agony,3,0,-1.34,392,53,6,1,0.583312
2,1,30,41,3,1.34,massacre,3,0,-1.34,393,47,6,1,0.7499805
2,1,30,92,1,1.34,concert,2,0,-1.34,394,193,6,1,0.5333211
2,1,30,26,3,1.34,surnd,1,0,-1.34,395,253,5,1,0.81656
3,2,30,172,2,1.34,wheiche,1,0,-1.34,0,324,6,1,0.8332997
3,2,30,132,1,1.34,sckroax,1,0,-1.34,1,283,6,1,0.7167031
3,2,30,101,2,1.34,scream,3,1,-1.34,2,22,5,1,0.6833854
3,2,30,4,3,1.34,sckwug,1,0,-1.34,3,251,6,1,0.9842323
3,2,30,103,1,1.34,klorche,1,0,-1.34,4,393,6,1,0.6999513
3,2,30,29,2,1.34,kroit,1,0,-1.34,5,230,6,1,0.666608
3,2,30,101,2,1.34,surnd,1,0,-1.34,6,319,6,1,0.8833265
3,2,30,172,2,1.34,satisfied,2,0,-1.34,7,126,5,1,0.7688697
3,2,30,173,3,1.34,stouged,1,0,-1.34,8,359,6,1,0.8167433
3,2,30,21,1,1.34,gulged,1,0,-1.34,9,366,6,1,1.2832979
3,2,30,18,3,1.34,pawp,1,0,-1.34,10,242,6,1,0.8499704
3,2,30,18,2,1.34,clewm,1,0,-1.34,11,204,6,1,0.7345773
3,2,30,143,3,1.34,thwaivvs,1,0,-1.34,12,243,6,1,0.5833007
3,2,30,128,1,1.34,open,2,0,-1.34,13,171,5,1,0.550088
3,2,30,143,2,1.34,runner,2,0,-1.34,14,113,5,1,0.5832938
3,2,30,125,3,1.34,kroit,1,0,-1.34,15,362,6,1,1.0167382
3,2,30,121,3,1.34,sckermbth,1,0,-1.34,16,232,6,1,0.566716
3,2,30,125,1,1.34,hate,3,-1,-1.34,17,78,5,1,0.7667408
3,2,30,4,2,1.34,silent,2,0,-1.34,18,118,5,1,0.5999623
3,2,30,141,3,1.34,art,2,0,-1.34,19,147,5,1,0.5499766
3,2,30,125,3,1.34,victimized,3,0,-1.34,20,65,5,1,0.5499276
3,2,30,4,3,1.34,sckwug,1,0,-1.34,21,350,6,1,0.7838433
3,2,30,105,2,1.34,thwaivvs,1,0,-1.34,22,210,6,1,0.6666217
3,2,30,63,1,1.34,wraxte,1,0,-1.34,23,287,6,1,0.6666347
3,2,30,172,3,1.34,sckrerphth,1,0,-1.34,24,247,6,1,0.5335622
3,2,30,103,2,1.34,jeeched,1,0,-1.34,25,216,6,1,0.4999542
3,2,30,172,2,1.34,wheiche,1,0,-1.34,26,225,6,1,0.5334027
3,2,30,125,2,1.34,zuinte,1,0,-1.34,27,301,6,1,0.5332585
3,2,30,132,3,1.34,blood,3,0,-1.34,28,51,5,1,0.700081
3,2,30,33,2,1.34,comment,2,0,-1.34,29,122,5,1,0.5166599
3,2,30,141,2,1.34,warm,2,0,-1.34,30,109,5,1,0.7166993
3,2,30,18,1,1.34,formal,2,0,-1.34,31,167,5,1,0.7332908
3,2,30,63,2,1.34,gwelched,1,0,-1.34,32,325,6,1,0.6833195
3,2,30,117,1,1.34,devil,3,-1,-1.34,33,77,5,1,1.3000457
3,2,30,69,3,1.34,scroines,1,0,-1.34,34,356,6,1,0.8331931
3,2,30,18,3,1.34,pawp,1,0,-1.34,35,341,6,1,0.5667131
3,2,30,69,3,1.34,poetry,2,0,-1.34,36,158,5,1,0.6167241
3,2,30,33,2,1.34,murder,3,1,-1.34,37,23,5,1,0.4666213
3,2,30,123,1,1.34,swizned,1,0,-1.34,38,388,6,1,0.8000592
3,2,30,132,3,1.34,jeeched,1,0,-1.34,39,348,6,1,1.3666124
3,2,30,33,1,1.34,kwerdged,1,0,-1.34,40,274,6,1,0.8998652
3,2,30,22,1,1.34,stab,3,-1,-1.34,41,70,5,1,1.0666391
3,2,30,29,3,1.34,meekes,1,0,-1.34,42,239,6,1,0.8833612
3,2,30,103,2,1.34,blood,3,1,-1.34,43,18,5,1,0.6194509
3,2,30,68,3,1.34,facilitate,2,0,-1.34,44,132,5,1,0.6000958
3,2,30,125,3,1.34,kroit,1,0,-1.34,45,263,6,1,0.6500663
3,2,30,138,1,1.34,runner,2,0,-1.34,46,179,5,1,0.6333353
3,2,30,125,1,1.34,mandate,2,0,-1.34,47,177,5,1,0.5856872
3,2,30,21,1,1.34,gulged,1,0,-1.34,48,267,6,1,2.0835062
3,2,30,138,1,1.34,massacre,3,-1,-1.34,49,80,5,1,0.8999592
3,2,30,63,2,1.34,gwelched,1,0,-1.34,50,226,6,1,0.949873
3,2,30,18,1,1.34,plal,1,0,-1.34,51,365,6,1,0.616691
3,2,30,26,2,1.34,skwyft,1,0,-1.34,52,302,6,1,0.7833053
3,2,30,104,1,1.34,art,2,0,-1.34,53,180,5,1,0.6857027
3,2,30,172,1,1.34,thwipte,1,0,-1.34,54,372,6,1,0.6832438
3,2,30,125,2,1.34,customer,2,0,-1.34,55,103,5,1,0.7000506
3,2,30,125,3,1.34,greet,2,0,-1.34,56,164,6,0,0.7667085
3,2,30,4,3,1.34,puppet,2,0,-1.34,57,152,5,1,1.8832508
3,2,30,103,3,1.34,assimilated,2,0,-1.34,58,153,5,1,0.6165584
3,2,30,41,2,1.34,win,2,0,-1.34,59,128,5,1,0.601116
3,2,30,173,2,1.34,puppet,2,0,-1.34,60,119,5,1,0.7668622
3,2,30,173,1,1.34,phone,2,0,-1.34,61,187,5,1,0.5695833
3,2,30,141,1,1.34,bleills,1,0,-1.34,62,271,6,1,0.8334041
3,2,30,132,3,1.34,roller,2,0,-1.34,63,150,5,1,1.5166937
3,2,30,92,2,1.34,slurms,1,0,-1.34,64,211,6,1,1.8685211
3,2,30,69,2,1.34,mutilated,3,1,-1.34,65,21,5,1,0.8332666
3,2,30,138,1,1.34,shrylk,1,0,-1.34,66,278,6,1,0.7832329
3,2,30,4,1,1.34,poetry,2,0,-1.34,67,191,5,1,0.7667066
3,2,30,173,1,1.34,surnd,1,0,-1.34,68,286,6,1,0.6999426
3,2,30,143,1,1.34,klupsed,1,0,-1.34,69,363,6,1,0.600081
3,2,30,130,2,1.34,swizned,1,0,-1.34,70,223,6,1,0.5999645
3,2,30,108,1,1.34,activities,2,0,-1.34,71,181,5,1,0.6506612
3,2,30,117,1,1.34,pawp,1,0,-1.34,72,374,6,1,0.9833465
3,2,30,29,2,1.34,kroit,1,0,-1.34,73,329,6,1,0.6167103
3,2,30,103,2,1.34,jeeched,1,0,-1.34,74,315,6,1,0.8165915
3,2,30,31,2,1.34,intimated,3,1,-1.34,75,31,5,1,0.6499243
3,2,30,29,1,1.34,agony,3,-1,-1.34,76,86,5,1,0.5841056
3,2,30,31,1,1.34,fatal,3,-1,-1.34,77,90,5,1,0.5999709
3,2,30,29,2,1.34,victimized,3,1,-1.34,78,32,5,1,0.6013504
3,2,30,123,2,1.34,injury,3,1,-1.34,79,1,5,1,0.5332658
3,2,30,63,1,1.34,comment,2,0,-1.34,80,188,5,1,0.5833122
3,2,30,131,2,1.34,terrorized,3,1,-1.34,81,30,5,1,0.6166525
3,2,30,130,3,1.34,process,2,0,-1.34,82,135,5,1,0.4333154
3,2,30,123,1,1.34,death,3,-1,-1.34,83,91,5,1,0.4832837
3,2,30,41,3,1.34,shrylk,1,0,-1.34,84,245,6,1,0.6332916
3,2,30,33,3,1.34,panicky,3,0,-1.34,85,42,5,1,1.016735
3,2,30,12,3,1.34,murder,3,0,-1.34,86,56,5,1,0.5666612
3,2,30,104,2,1.34,retold,2,0,-1.34,87,123,5,1,0.8674961
3,2,30,173,1,1.34,scream,3,-1,-1.34,88,88,5,1,0.4833192
3,2,30,172,3,1.34,activities,2,0,-1.34,89,148,5,1,0.5166594
3,2,30,103,1,1.34,refuge,2,0,-1.34,90,195,5,1,0.399958
3,2,30,103,2,1.34,roller,2,0,-1.34,91,117,5,1,0.5834195
3,2,30,132,2,1.34,pawp,1,0,-1.34,92,308,6,1,0.7165601
3,2,30,31,3,1.34,sckroax,1,0,-1.34,93,349,6,1,0.5665591
3,2,30,68,2,1.34,ghoond,1,0,-1.34,94,312,6,1,0.6833012
3,2,30,22,1,1.34,customer,2,0,-1.34,95,169,5,1,0.8333215
3,2,30,125,2,1.34,stab,3,1,-1.34,96,4,5,1,0.6001718
3,2,30,69,2,1.34,assimilated,2,0,-1.34,97,120,5,1,0.4665468
3,2,30,18,1,1.34,assault,3,-1,-1.34,98,68,5,1,0.4333536
3,2,30,173,2,1.34,sckwug,1,0,-1.34,99,218,6,1,0.7833888
3,2,30,31,1,1.34,shreeff,1,0,-1.34,100,288,6,1,0.8019115
3,2,30,132,1,1.34,sckroax,1,0,-1.34,101,382,6,1,0.7500373
3,2,30,132,2,1.34,devil,3,1,-1.34,102,11,5,1,0.5667214
3,2,30,172,1,1.34,panicky,3,-1,-1.34,103,75,5,1,0.7166439
3,2,30,117,2,1.34,plal,1,0,-1.34,104,299,6,1,0.8333558
3,2,30,104,3,1.34,stab,3,0,-1.34,105,37,5,1,0.583295
3,2,30,63,3,1.34,klorche,1,0,-1.34,106,360,6,1,0.6011256
3,2,30,143,1,1.34,klupsed,1,0,-1.34,107,264,6,1,0.7000218
3,2,30,138,2,1.34,process,2,0,-1.34,108,102,5,1,0.8333
3,2,30,104,1,1.34,ghoond,1,0,-1.34,109,378,6,1,0.9166554
3,2,30,141,2,1.34,kwerdged,1,0,-1.34,110,208,6,1,0.6665438
3,2,30,18,3,1.34,leaping,2,0,-1.34,111,143,5,1,0.7332936
3,2,30,18,2,1.34,open,2,0,-1.34,112,105,5,1,0.6499392
3,2,30,68,1,1.34,skwyft,1,0,-1.34,113,368,6,1,0.76662
3,2,30,143,3,1.34,mandate,2,0,-1.34,114,144,5,1,0.616531
3,2,30,105,1,1.34,greet,2,0,-1.34,115,197,5,1,0.6166968
3,2,30,101,3,1.34,doom,3,0,-1.34,116,46,5,1,1.0167296
3,2,30,143,2,1.34,shrylk,1,0,-1.34,117,212,6,1,0.5167661
3,2,30,12,1,1.34,shoatt,1,0,-1.34,118,295,6,1,0.8833842
3,2,30,33,1,1.34,evil,3,-1,-1.34,119,76,5,1,0.5175359
3,2,30,140,2,1.34,poetry,2,0,-1.34,120,125,5,1,1.0333803
3,2,30,138,3,1.34,gwelched,1,0,-1.34,121,358,6,1,1.166639
3,2,30,103,3,1.34,mutilated,3,0,-1.34,122,54,5,1,0.6833938
3,2,30,121,1,1.34,troaphed,1,0,-1.34,123,281,6,1,1.5834006
3,2,30,41,2,1.34,slash,3,1,-1.34,124,29,5,1,1.2166426
3,2,30,121,2,1.34,bleills,1,0,-1.34,125,205,6,1,0.699956
3,2,30,68,1,1.34,over,2,0,-1.34,126,170,5,1,1.1166626
3,2,30,121,1,1.34,count,2,0,-1.34,127,182,5,1,0.6499573
3,2,30,4,3,1.34,agony,3,0,-1.34,128,53,5,1,0.5332858
3,2,30,131,1,1.34,terrified,3,-1,-1.34,129,74,5,1,0.4666671
3,2,30,125,2,1.34,zuinte,1,0,-1.34,130,202,6,1,1.5333609
3,2,30,68,3,1.34,klupsed,1,0,-1.34,131,231,6,1,0.7998876
3,2,30,172,1,1.34,thwipte,1,0,-1.34,132,273,6,1,0.6666815
3,2,30,69,1,1.34,sckermbth,1,0,-1.34,133,364,6,1,0.7998974
3,2,30,117,3,1.34,death,3,0,-1.34,134,58,5,1,0.7333113
3,2,30,4,2,1.34,strangle,3,1,-1.34,135,19,5,1,0.8999442
3,2,30,173,2,1.34,agony,3,1,-1.34,136,20,5,1,0.6000689
3,2,30,26,2,1.34,violence,3,1,-1.34,137,5,5,1,0.7166976
3,2,30,128,2,1.34,sckrerphth,1,0,-1.34,138,214,6,1,0.6000505
3,2,30,104,3,1.34,customer,2,0,-1.34,139,136,5,1,0.949959
3,2,30,31,2,1.34,shoatt,1,0,-1.34,140,328,6,1,1.0667227
3,2,30,29,1,1.34,sckwug,1,0,-1.34,141,284,6,1,0.5666928
3,2,30,21,3,1.34,kwerdged,1,0,-1.34,142,241,6,1,0.6167311
3,2,30,92,3,1.34,kill,3,0,-1.34,143,50,5,1,0.6833892
3,2,30,108,3,1.34,suffering,3,0,-1.34,144,39,5,1,0.5667236
3,2,30,12,2,1.34,modulation,2,0,-1.34,145,107,5,1,0.5854654
3,2,30,130,1,1.34,slurms,1,0,-1.34,146,277,5,0,0.4334072
3,2,30,33,1,1.34,warm,2,0,-1.34,147,175,5,1,0.5832984
3,2,30,105,1,1.34,kroit,1,0,-1.34,148,395,6,1,1.5165061
3,2,30,104,2,1.34,shreeff,1,0,-1.34,149,321,6,1,0.9834923
3,2,30,92,1,1.34,concert,2,0,-1.34,150,193,5,1,1.0000733
3,2,30,173,3,1.34,slash,3,0,-1.34,151,62,5,1,0.683285
3,2,30,68,2,1.34,beat,3,1,-1.34,152,15,5,1,0.783342
3,2,30,123,2,1.34,invited,2,0,-1.34,153,100,5,1,1.2166235
3,2,30,121,3,1.34,sckermbth,1,0,-1.34,154,331,6,1,1.201764
3,2,30,69,3,1.34,scroines,1,0,-1.34,155,257,6,1,1.4666235
3,2,30,123,1,1.34,leisure,2,0,-1.34,156,190,5,1,0.7666355
3,2,30,131,2,1.34,klorche,1,0,-1.34,157,327,6,1,0.7999416
3,2,30,12,3,1.34,wraxte,1,0,-1.34,158,353,6,1,0.7499739
3,2,30,12,2,1.34,meekes,1,0,-1.34,159,305,6,1,1.0000768
3,2,30,141,1,1.34,threatened,3,-1,-1.34,160,73,5,1,0.7499289
3,2,30,12,1,1.34,prize,2,0,-1.34,161,196,5,1,0.7999799
3,2,30,33,3,1.34,sitter,2,0,-1.34,162,141,5,1,0.9833885
3,2,30,123,2,1.34,sckermbth,1,0,-1.34,163,199,6,1,0.7833168
3,2,30,103,1,1.34,klorche,1,0,-1.34,164,294,6,1,0.8167543
3,2,30,92,2,1.34,doom,3,1,-1.34,165,13,5,1,0.8333024
3,2,30,117,3,1.34,swizned,1,0,-1.34,166,355,6,1,0.8332768
3,2,30,132,3,1.34,jeeched,1,0,-1.34,167,249,6,1,0.8499645
3,2,30,128,3,1.34,wheiche,1,0,-1.34,168,357,6,1,0.7999825
3,2,30,140,2,1.34,agonized,3,1,-1.34,169,26,5,1,0.6500235
3,2,30,101,1,1.34,staufed,1,0,-1.34,170,384,6,1,0.6833255
3,2,30,108,2,1.34,sitter,2,0,-1.34,171,108,5,1,0.6500244
3,2,30,172,2,1.34,shoot,3,1,-1.34,172,27,5,1,0.6334129
3,2,30,108,1,1.34,sckrerphth,1,0,-1.34,173,379,6,1,0.6166548
3,2,30,68,1,1.34,skwyft,1,0,-1.34,174,269,6,1,0.700056
3,2,30,140,3,1.34,ability,2,0,-1.34,175,139,5,1,0.5665127
3,2,30,22,2,1.34,klupsed,1,0,-1.34,176,198,6,1,0.7668354
3,2,30,92,3,1.34,troaphed,1,0,-1.34,177,347,6,1,0.5999981
3,2,30,41,3,1.34,shrylk,1,0,-1.34,178,344,6,1,0.7331709
3,2,30,22,2,1.34,threat,3,1,-1.34,179,0,5,1,0.6333014
3,2,30,141,1,1.34,bleills,1,0,-1.34,180,370,6,1,0.9666561
3,2,30,138,1,1.34,shrylk,1,0,-1.34,181,377,6,1,0.8166241
3,2,30,141,3,1.34,ghoond,1,0,-1.34,182,246,6,1,0.9999546
3,2,30,138,2,1.34,wound,3,1,-1.34,183,3,5,1,0.6178849
3,2,30,41,3,1.34,runner,2,0,-1.34,184,146,5,1,1.1833539
3,2,30,103,1,1.34,terrorized,3,-1,-1.34,185,96,5,1,0.4665537
3,2,30,138,3,1.34,gwelched,1,0,-1.34,186,259,6,1,0.7165576
3,2,30,101,1,1.34,mutilated,3,-1,-1.34,187,87,5,1,0.9833201
3,2,30,117,3,1.34,swizned,1,0,-1.34,188,256,6,1,0.9000672
3,2,30,121,1,1.34,troaphed,1,0,-1.34,189,380,6,1,1.0666718
3,2,30,128,2,1.34,sckrerphth,1,0,-1.34,190,313,6,1,0.9166773
3,2,30,123,3,1.34,shreeff,1,0,-1.34,191,255,6,1,1.4499322
3,2,30,128,1,1.34,clewm,1,0,-1.34,192,270,6,1,0.8832791
3,2,30,128,3,1.34,satisfied,2,0,-1.34,193,159,5,1,0.6166323
3,2,30,108,2,1.34,thwipte,1,0,-1.34,194,207,6,1,1.0833103
3,2,30,4,2,1.34,sckroax,1,0,-1.34,195,316,5,0,1.1167537
3,2,30,12,2,1.34,terrified,3,1,-1.34,196,8,5,1,0.8667043
3,2,30,123,3,1.34,retold,2,0,-1.34,197,156,5,1,0.5667795
3,2,30,68,2,1.34,ghoond,1,0,-1.34,198,213,6,1,1.066683
3,2,30,104,3,1.34,zuinte,1,0,-1.34,199,235,6,1,1.316606
3,2,30,140,1,1.34,roller,2,0,-1.34,200,183,5,1,0.7665599
3,2,30,22,1,1.34,zuinte,1,0,-1.34,201,367,6,1,0.633297
3,2,30,29,1,1.34,puppet,2,0,-1.34,202,185,5,1,0.6999593
3,2,30,26,1,1.34,shoot,3,-1,-1.34,203,93,5,1,0.8667235
3,2,30,128,3,1.34,wheiche,1,0,-1.34,204,258,6,1,0.6667169
3,2,30,69,2,1.34,staufed,1,0,-1.34,205,219,6,1,0.9000465
3,2,30,141,2,1.34,evil,3,1,-1.34,206,10,5,1,2.6832686
3,2,30,22,2,1.34,klupsed,1,0,-1.34,207,297,6,1,0.5999066
3,2,30,18,1,1.34,plal,1,0,-1.34,208,266,6,1,0.6332894
3,2,30,22,1,1.34,zuinte,1,0,-1.34,209,268,6,1,0.7999359
3,2,30,69,1,1.34,invited,2,0,-1.34,210,166,5,1,0.6331607
3,2,30,26,2,1.34,skwyft,1,0,-1.34,211,203,6,1,0.6166211
3,2,30,4,1,1.34,scroines,1,0,-1.34,212,389,6,1,1.0166424
3,2,30,117,3,1.34,leisure,2,0,-1.34,213,157,5,1,0.6667153
3,2,30,104,1,1.34,ghoond,1,0,-1.34,214,279,6,1,0.8001395
3,2,30,132,2,1.34,leaping,2,0,-1.34,215,110,5,1,0.5666628
3,2,30,31,3,1.34,strangle,3,0,-1.34,216,52,5,1,0.516739
3,2,30,18,2,1.34,clewm,1,0,-1.34,217,303,6,1,1.0333531
3,2,30,41,2,1.34,stouged,1,0,-1.34,218,227,6,1,1.2009218
3,2,30,123,2,1.34,sckermbth,1,0,-1.34,219,298,6,1,0.7500957
3,2,30,33,3,1.34,thwipte,1,0,-1.34,220,339,6,1,0.5665453
3,2,30,130,1,1.34,doom,3,-1,-1.34,221,79,5,1,0.6833217
3,2,30,105,2,1.34,mandate,2,0,-1.34,222,111,5,1,0.5666358
3,2,30,41,1,1.34,stouged,1,0,-1.34,223,392,6,1,1.7666487
3,2,30,141,3,1.34,beat,3,0,-1.34,224,48,5,1,1.0498871
3,2,30,131,1,1.34,meekes,1,0,-1.34,225,371,6,1,1.5166136
3,2,30,172,1,1.34,sitter,2,0,-1.34,226,174,5,1,0.8016758
3,2,30,130,2,1.34,leisure,2,0,-1.34,227,124,5,1,1.8666401
3,2,30,26,2,1.34,over,2,0,-1.34,228,104,5,1,0.5166619
3,2,30,130,2,1.34,death,3,1,-1.34,229,25,5,1,0.4665397
3,2,30,103,3,1.34,staufed,1,0,-1.34,230,252,5,0,0.4333742
3,2,30,63,1,1.34,murder,3,-1,-1.34,231,89,5,1,0.5021407
3,2,30,132,1,1.34,silent,2,0,-1.34,232,184,5,1,1.1999915
3,2,30,26,3,1.34,scream,3,0,-1.34,233,55,5,1,1.3349775
3,2,30,173,2,1.34,sckwug,1,0,-1.34,234,317,6,1,0.6665894
3,2,30,128,2,1.34,activities,2,0,-1.34,235,115,5,1,0.8666566
3,2,30,130,3,1.34,wound,3,0,-1.34,236,36,5,1,0.633318
3,2,30,21,3,1.34,kwerdged,1,0,-1.34,237,340,6,1,0.8332954
3,2,30,69,3,1.34,agonized,3,0,-1.34,238,59,5,1,0.8499598
3,2,30,41,1,1.34,stouged,1,0,-1.34,239,293,6,1,2.0332809
3,2,30,63,3,1.34,terrorized,3,0,-1.34,240,63,5,1,0.8166092
3,2,30,63,3,1.34,klorche,1,0,-1.34,241,261,6,1,0.7499352
3,2,30,117,2,1.34,formal,2,0,-1.34,242,101,5,1,2.2500348
3,2,30,141,3,1.34,ghoond,1,0,-1.34,243,345,6,1,1.0333668
3,2,30,143,3,1.34,hate,3,0,-1.34,244,45,5,1,2.2338153
3,2,30,101,2,1.34,surnd,1,0,-1.34,245,220,6,1,1.1000312
3,2,30,105,1,1.34,kroit,1,0,-1.34,246,296,6,1,0.9333046
3,2,30,131,1,1.34,meekes,1,0,-1.34,247,272,6,1,1.6023296
3,2,30,18,3,1.34,devil,3,0,-1.34,248,44,5,1,0.8011294
3,2,30,101,3,1.34,slurms,1,0,-1.34,249,244,6,1,1.4999642
3,2,30,108,3,1.34,clewm,1,0,-1.34,250,237,6,1,2.0165938
3,2,30,41,1,1.34,win,2,0,-1.34,251,194,5,1,2.7674
3,2,30,121,3,1.34,injury,3,0,-1.34,252,34,5,1,0.8833106
3,2,30,138,3,1.34,torture,3,0,-1.34,253,61,5,1,0.6333124
3,2,30,130,2,1.34,swizned,1,0,-1.34,254,322,6,1,0.6177946
3,2,30,69,1,1.34,injury,3,-1,-1.34,255,67,5,1,0.5999627
3,2,30,117,2,1.34,plal,1,0,-1.34,256,200,6,1,0.668061
3,2,30,131,3,1.34,shoatt,1,0,-1.34,257,262,6,1,0.6999693
3,2,30,4,1,1.34,scroines,1,0,-1.34,258,290,6,1,1.6010132
3,2,30,138,2,1.34,gulged,1,0,-1.34,259,300,6,1,1.6666916
3,2,30,128,3,1.34,shoot,3,0,-1.34,260,60,5,1,0.6178585
3,2,30,21,2,1.34,troaphed,1,0,-1.34,261,215,6,1,0.7834452
3,2,30,121,2,1.34,threatened,3,1,-1.34,262,7,5,1,0.6499673
3,2,30,143,1,1.34,threat,3,-1,-1.34,263,66,5,1,0.5167471
3,2,30,108,3,1.34,clewm,1,0,-1.34,264,336,6,1,0.6167109
3,2,30,21,2,1.34,troaphed,1,0,-1.34,265,314,6,1,1.0499259
3,2,30,68,2,1.34,art,2,0,-1.34,266,114,5,1,0.6333489
3,2,30,29,3,1.34,modulation,2,0,-1.34,267,140,5,1,0.6500418
3,2,30,29,2,1.34,greet,2,0,-1.34,268,131,5,1,0.6667309
3,2,30,138,3,1.34,concert,2,0,-1.34,269,160,5,1,0.516713
3,2,30,121,2,1.34,bleills,1,0,-1.34,270,304,6,1,0.5999641
3,2,30,12,3,1.34,comment,2,0,-1.34,271,155,5,1,0.5832989
3,2,30,63,2,1.34,torture,3,1,-1.34,272,28,5,1,0.8333241
3,2,30,105,3,1.34,plal,1,0,-1.34,273,233,6,1,0.6667139
3,2,30,125,1,1.34,thwaivvs,1,0,-1.34,274,276,6,1,1.1665472
3,2,30,108,1,1.34,sckrerphth,1,0,-1.34,275,280,6,1,0.5333327
3,2,30,92,2,1.34,signals,2,0,-1.34,276,112,5,1,0.6999527
3,2,30,31,3,1.34,silent,2,0,-1.34,277,151,5,1,0.9667252
3,2,30,131,2,1.34,refuge,2,0,-1.34,278,129,5,1,0.6665456
3,2,30,12,1,1.34,intimated,3,-1,-1.34,279,97,5,1,0.5833846
3,2,30,92,1,1.34,gwelched,1,0,-1.34,280,292,6,1,1.0000754
3,2,30,104,2,1.34,shreeff,1,0,-1.34,281,222,6,1,0.6501417
3,2,30,132,1,1.34,strangle,3,-1,-1.34,282,85,5,1,0.6499335
3,2,30,131,2,1.34,klorche,1,0,-1.34,283,228,6,1,1.0165915
3,2,30,172,3,1.34,sckrerphth,1,0,-1.34,284,346,6,1,0.7667227
3,2,30,33,3,1.34,thwipte,1,0,-1.34,285,240,6,1,0.8332877
3,2,30,101,1,1.34,staufed,1,0,-1.34,286,285,6,1,0.816597
3,2,30,131,3,1.34,intimated,3,0,-1.34,287,64,5,1,0.9664958
3,2,30,105,3,1.34,formal,2,0,-1.34,288,134,5,1,0.9332924
3,2,30,140,3,1.34,bleills,1,0,-1.34,289,238,6,1,0.6999613
3,2,30,117,1,1.34,pawp,1,0,-1.34,290,275,6,1,0.6999572
3,2,30,31,3,1.34,sckroax,1,0,-1.34,291,250,6,1,0.699973
3,2,30,21,1,1.34,wound,3,-1,-1.34,292,69,5,1,1.4167048
3,2,30,104,3,1.34,zuinte,1,0,-1.34,293,334,6,1,1.116658
3,2,30,12,3,1.34,wraxte,1,0,-1.34,294,254,6,1,0.6000154
3,2,30,101,2,1.34,phone,2,0,-1.34,295,121,5,1,0.6665351
3,2,30,69,1,1.34,sckermbth,1,0,-1.34,296,265,6,1,1.0833047
3,2,30,26,1,1.34,satisfied,2,0,-1.34,297,192,5,1,0.8500643
3,2,30,108,2,1.34,thwipte,1,0,-1.34,298,306,6,1,0.8675998
3,2,30,143,2,1.34,massacre,3,1,-1.34,299,14,5,1,0.5831835
3,2,30,26,3,1.34,surnd,1,0,-1.34,300,253,6,1,0.7666931
3,2,30,140,3,1.34,threatened,3,0,-1.34,301,40,5,1,1.0000614
3,2,30,132,2,1.34,pawp,1,0,-1.34,302,209,6,1,0.6500543
3,2,30,101,3,1.34,slurms,1,0,-1.34,303,343,6,1,1.0174564
3,2,30,21,2,1.34,count,2,0,-1.34,304,116,5,1,1.0665871
3,2,30,31,2,1.34,shoatt,1,0,-1.34,305,229,6,1,0.6832951
3,2,30,92,1,1.34,torture,3,-1,-1.34,306,94,5,1,0.7999473
3,2,30,92,2,1.34,slurms,1,0,-1.34,307,310,6,1,0.9499446
3,2,30,21,2,1.34,kill,3,1,-1.34,308,17,5,1,0.6665665
3,2,30,140,1,1.34,jeeched,1,0,-1.34,309,282,6,1,0.6165528
3,2,30,92,3,1.34,count,2,0,-1.34,310,149,5,1,1.000669
3,2,30,4,1,1.34,agonized,3,-1,-1.34,311,92,5,1,0.5666582
3,2,30,143,1,1.34,facilitate,2,0,-1.34,312,165,5,1,0.5334089
3,2,30,172,3,1.34,choke,3,0,-1.34,313,49,5,1,0.4838592
3,2,30,68,3,1.34,klupsed,1,0,-1.34,314,330,6,1,0.5332464
3,2,30,22,3,1.34,skwyft,1,0,-1.34,315,236,6,1,0.5167249
3,2,30,21,1,1.34,process,2,0,-1.34,316,168,5,1,0.5341088
3,2,30,130,1,1.34,slurms,1,0,-1.34,317,376,6,1,0.8000591
3,2,30,22,3,1.34,over,2,0,-1.34,318,137,5,1,1.617479
3,2,30,63,1,1.34,wraxte,1,0,-1.34,319,386,6,1,0.6332807
3,2,30,140,3,1.34,bleills,1,0,-1.34,320,337,6,1,0.5350484
3,2,30,12,1,1.34,shoatt,1,0,-1.34,321,394,6,1,0.6000858
3,2,30,4,2,1.34,sckroax,1,0,-1.34,322,217,6,1,0.4834155
3,2,30,138,2,1.34,gulged,1,0,-1.34,323,201,6,1,1.2500717
3,2,30,141,1,1.34,ability,2,0,-1.34,324,172,5,1,0.8999789
3,2,30,121,2,1.34,ability,2,0,-1.34,325,106,5,1,0.4500537
3,2,30,68,1,1.34,violence,3,-1,-1.34,326,71,5,1,0.4333119
3,2,30,173,1,1.34,surnd,1,0,-1.34,327,385,6,1,0.5349359
3,2,30,33,2,1.34,wraxte,1,0,-1.34,328,320,6,1,0.5499215
3,2,30,29,3,1.34,terrified,3,0,-1.34,329,41,5,1,0.783275
3,2,30,22,3,1.34,skwyft,1,0,-1.34,330,335,6,1,1.2666307
3,2,30,21,3,1.34,warm,2,0,-1.34,331,142,5,1,1.1508537
3,2,30,92,1,1.34,gwelched,1,0,-1.34,332,391,6,1,0.6999569
3,2,30,41,3,1.34,massacre,3,0,-1.34,333,47,5,1,0.7998823
3,2,30,26,1,1.34,wheiche,1,0,-1.34,334,390,6,1,1.2166929
3,2,30,22,2,1.34,facilitate,2,0,-1.34,335,99,5,1,0.6348777
3,2,30,31,1,1.34,shreeff,1,0,-1.34,336,387,6,1,0.7332701
3,2,30,26,3,1.34,phone,2,0,-1.34,337,154,5,1,2.233289
3,2,30,101,1,1.34,assimilated,2,0,-1.34,338,186,5,1,0.5506163
3,2,30,92,3,1.34,troaphed,1,0,-1.34,339,248,6,1,0.6667288
3,2,30,131,3,1.34,shoatt,1,0,-1.34,340,361,6,1,0.6166292
3,2,30,41,1,1.34,slash,3,-1,-1.34,341,95,5,1,0.7000672
3,2,30,130,1,1.34,signals,2,0,-1.34,342,178,5,1,0.9332977
3,2,30,130,3,1.34,gulged,1,0,-1.34,343,234,6,1,1.1666451
3,2,30,21,3,1.34,evil,3,0,-1.34,344,43,5,1,0.5499394
3,2,30,140,2,1.34,scroines,1,0,-1.34,345,224,6,1,1.3831737
3,2,30,123,3,1.34,fatal,3,0,-1.34,346,57,6,0,1.216603
3,2,30,18,2,1.34,suffering,3,1,-1.34,347,6,5,1,0.6666569
3,2,30,105,3,1.34,plal,1,0,-1.34,348,332,6,1,0.7000421
3,2,30,140,1,1.34,blood,3,-1,-1.34,349,84,5,1,0.6832219
3,2,30,128,2,1.34,choke,3,1,-1.34,350,16,5,1,0.6333221
3,2,30,103,3,1.34,staufed,1,0,-1.34,351,351,6,1,0.6833915
3,2,30,123,3,1.34,shreeff,1,0,-1.34,352,354,6,1,1.316598
3,2,30,108,1,1.34,choke,3,-1,-1.34,353,82,5,1,0.652476
3,2,30,29,1,1.34,sckwug,1,0,-1.34,354,383,6,1,0.8000196
3,2,30,104,2,1.34,fatal,3,1,-1.34,355,24,5,1,0.566562
3,2,30,128,1,1.34,clewm,1,0,-1.34,356,369,6,1,1.033317
3,2,30,173,3,1.34,win,2,0,-1.34,357,161,5,1,0.5001038
3,2,30,117,1,1.34,leaping,2,0,-1.34,358,176,5,1,0.6833519
3,2,30,173,3,1.34,stouged,1,0,-1.34,359,260,6,1,0.7332493
3,2,30,69,2,1.34,staufed,1,0,-1.34,360,318,6,1,0.8000862
3,2,30,41,2,1.34,stouged,1,0,-1.34,361,326,6,1,0.9666155
3,2,30,31,1,1.34,retold,2,0,-1.34,362,189,5,1,0.5012876
3,2,30,140,1,1.34,jeeched,1,0,-1.34,363,381,6,1,0.8831645
3,2,30,117,2,1.34,assault,3,1,-1.34,364,2,5,1,0.6832851
3,2,30,22,3,1.34,violence,3,0,-1.34,365,38,5,1,1.1842374
3,2,30,121,3,1.34,invited,2,0,-1.34,366,133,5,1,0.9333299
3,2,30,105,3,1.34,assault,3,0,-1.34,367,35,5,1,1.3665894
3,2,30,26,3,1.34,surnd,1,0,-1.34,368,352,6,1,0.933185
3,2,30,141,2,1.34,kwerdged,1,0,-1.34,369,307,6,1,1.5675111
3,2,30,105,2,1.34,hate,3,1,-1.34,370,12,5,1,0.7499635
3,2,30,140,2,1.34,scroines,1,0,-1.34,371,323,6,1,0.8000528
3,2,30,131,3,1.34,prize,2,0,-1.34,372,163,5,1,0.8668512
3,2,30,68,3,1.34,threat,3,0,-1.34,373,33,5,1,0.8498201
3,2,30,131,1,1.34,modulation,2,0,-1.34,374,173,5,1,0.783286
3,2,30,26,1,1.34,wheiche,1,0,-1.34,375,291,6,1,0.9999933
3,2,30,143,3,1.34,thwaivvs,1,0,-1.34,376,342,6,1,0.75
3,2,30,128,1,1.34,suffering,3,-1,-1.34,377,72,5,1,0.7669602
3,2,30,105,2,1.34,thwaivvs,1,0,-1.34,378,309,6,1,0.6000882
3,2,30,33,2,1.34,wraxte,1,0,-1.34,379,221,6,1,0.784534
3,2,30,121,1,1.34,kill,3,-1,-1.34,380,83,5,1,0.6500789
3,2,30,130,3,1.34,gulged,1,0,-1.34,381,333,6,1,1.1849626
3,2,30,143,2,1.34,shrylk,1,0,-1.34,382,311,6,1,0.683294
3,2,30,108,3,1.34,open,2,0,-1.34,383,138,5,1,0.6165855
3,2,30,12,2,1.34,meekes,1,0,-1.34,384,206,6,1,0.6166487
3,2,30,31,2,1.34,prize,2,0,-1.34,385,130,5,1,0.6499556
3,2,30,33,1,1.34,kwerdged,1,0,-1.34,386,373,6,1,0.6666293
3,2,30,108,2,1.34,panicky,3,1,-1.34,387,9,5,1,0.9333694
3,2,30,105,1,1.34,victimized,3,-1,-1.34,388,98,5,1,0.6999699
3,2,30,104,1,1.34,beat,3,-1,-1.34,389,81,5,1,0.7167123
3,2,30,29,3,1.34,meekes,1,0,-1.34,390,338,6,1,0.7666892
3,2,30,63,3,1.34,refuge,2,0,-1.34,391,162,5,1,0.6167168
3,2,30,123,1,1.34,swizned,1,0,-1.34,392,289,6,1,0.6667436
3,2,30,125,1,1.34,thwaivvs,1,0,-1.34,393,375,6,1,0.6166563
3,2,30,63,2,1.34,concert,2,0,-1.34,394,127,5,1,1.085346
3,2,30,101,3,1.34,signals,2,0,-1.34,395,145,5,1,0.9165595
4,1,30,138,2,1.34,process,2,0,-1.34,0,102,6,1,1.0666033
4,1,30,41,1,1.34,win,2,0,-1.34,1,194,6,1,0.6333771
4,1,30,33,2,1.34,comment,2,0,-1.34,2,122,6,1,0.5666708
4,1,30,4,3,1.34,sckwug,1,0,-1.34,3,251,5,1,0.7499682
4,1,30,104,2,1.34,shreeff,1,0,-1.34,4,222,5,1,0.5667076
4,1,30,130,3,1.34,gulged,1,0,-1.34,5,234,5,1,0.9844462
4,1,30,92,3,1.34,count,2,0,-1.34,6,149,5,0,0.6167317
4,1,30,4,2,1.34,sckroax,1,0,-1.34,7,316,5,1,0.7333548
4,1,30,128,2,1.34,choke,3,1,-1.34,8,16,6,1,0.6678811
4,1,30,141,3,1.34,beat,3,0,-1.34,9,48,6,1,0.8333115
4,1,30,173,1,1.34,surnd,1,0,-1.34,10,286,5,1,0.7832309
4,1,30,108,2,1.34,thwipte,1,0,-1.34,11,306,5,1,0.6171932
4,1,30,103,1,1.34,klorche,1,0,-1.34,12,294,5,1,0.4999432
4,1,30,22,1,1.34,stab,3,-1,-1.34,13,70,6,1,0.7500399
4,1,30,123,3,1.34,fatal,3,0,-1.34,14,57,6,1,0.9166564
4,1,30,92,3,1.34,troaphed,1,0,-1.34,15,347,5,1,0.6501193
4,1,30,108,1,1.34,activities,2,0,-1.34,16,181,6,1,0.6478291
4,1,30,141,3,1.34,art,2,0,-1.34,17,147,6,1,0.5833991
4,1,30,173,2,1.34,sckwug,1,0,-1.34,18,317,5,1,0.5333181
4,1,30,12,3,1.34,murder,3,0,-1.34,19,56,6,1,0.5667184
4,1,30,132,1,1.34,sckroax,1,0,-1.34,20,382,5,1,0.533339
4,1,30,132,2,1.34,pawp,1,0,-1.34,21,308,5,1,0.51657
4,1,30,173,3,1.34,win,2,0,-1.34,22,161,6,1,0.583634
4,1,30,4,3,1.34,agony,3,0,-1.34,23,53,6,1,0.6499489
4,1,30,108,3,1.34,clewm,1,0,-1.34,24,237,5,1,0.5333279
4,1,30,138,1,1.34,runner,2,0,-1.34,25,179,6,1,0.9666264
4,1,30,21,1,1.34,gulged,1,0,-1.34,26,267,5,1,0.8010625
4,1,30,18,3,1.34,pawp,1,0,-1.34,27,341,5,1,0.7166232
4,1,30,117,1,1.34,devil,3,-1,-1.34,28,77,6,1,0.6498816
4,1,30,143,2,1.34,shrylk,1,0,-1.34,29,212,5,1,0.6165321
4,1,30,22,2,1.34,threat,3,1,-1.34,30,0,6,1,0.8000395
4,1,30,63,1,1.34,murder,3,-1,-1.34,31,89,6,1,0.7177728
4,1,30,33,1,1.34,warm,2,0,-1.34,32,175,6,1,0.5333631
4,1,30,104,1,1.34,ghoond,1,0,-1.34,33,378,5,1,0.5665823
4,1,30,4,2,1.34,silent,2,0,-1.34,34,118,6,1,0.5832036
4,1,30,63,1,1.34,wraxte,1,0,-1.34,35,287,5,1,0.5499625
4,1,30,21,3,1.34,kwerdged,1,0,-1.34,36,241,5,1,0.6833288
4,1,30,143,1,1.34,klupsed,1,0,-1.34,37,264,5,1,0.5675789
4,1,30,69,2,1.34,staufed,1,0,-1.34,38,219,5,1,0.6499067
4,1,30,172,2,1.34,satisfied,2,0,-1.34,39,126,6,1,0.7363368
4,1,30,140,1,1.34,jeeched,1,0,-1.34,40,282,5,1,0.6499526
4,1,30,101,2,1.34,scream,3,1,-1.34,41,22,6,1,0.5667559
4,1,30,125,3,1.34,kroit,1,0,-1.34,42,263,5,1,0.5167537
4,1,30,117,1,1.34,pawp,1,0,-1.34,43,374,5,1,1.1500126
4,1,30,105,2,1.34,thwaivvs,1,0,-1.34,44,309,5,1,0.6333648
4,1,30,105,1,1.34,kroit,1,0,-1.34,45,395,5,1,0.8006309
4,1,30,68,1,1.34,skwyft,1,0,-1.34,46,269,5,1,0.5665443
4,1,30,173,2,1.34,agony,3,1,-1.34,47,20,6,1,0.5499476
4,1,30,12,3,1.34,wraxte,1,0,-1.34,48,254,5,1,0.6166689
4,1,30,105,2,1.34,mandate,2,0,-1.34,49,111,6,1,0.7166189
4,1,30,22,1,1.34,zuinte,1,0,-1.34,50,268,5,1,0.5665641
4,1,30,21,2,1.34,troaphed,1,0,-1.34,51,215,5,1,0.5833544
4,1,30,141,1,1.34,ability,2,0,-1.34,52,172,6,1,0.5665757
4,1,30,125,1,1.34,thwaivvs,1,0,-1.34,53,276,5,1,0.5833261
4,1,30,31,2,1.34,shoatt,1,0,-1.34,54,229,5,1,0.6000857
4,1,30,63,3,1.34,klorche,1,0,-1.34,55,360,5,1,0.5666152
4,1,30,128,3,1.34,satisfied,2,0,-1.34,56,159,6,1,0.6332938
4,1,30,138,2,1.34,wound,3,1,-1.34,57,3,6,1,1.0000722
4,1,30,26,3,1.34,surnd,1,0,-1.34,58,253,5,1,0.6166307
4,1,30,173,1,1.34,phone,2,0,-1.34,59,187,6,1,0.6333379
4,1,30,130,3,1.34,wound,3,0,-1.34,60,36,6,1,1.1166503
4,1,30,140,1,1.34,roller,2,0,-1.34,61,183,6,1,0.6000832
4,1,30,29,2,1.34,kroit,1,0,-1.34,62,329,5,1,0.6001176
4,1,30,63,3,1.34,refuge,2,0,-1.34,63,162,6,1,0.7499013
4,1,30,125,1,1.34,mandate,2,0,-1.34,64,177,6,1,0.6332024
4,1,30,31,2,1.34,shoatt,1,0,-1.34,65,328,5,1,0.5666834
4,1,30,22,3,1.34,skwyft,1,0,-1.34,66,335,5,1,0.6499565
4,1,30,128,2,1.34,sckrerphth,1,0,-1.34,67,313,5,1,0.5166911
4,1,30,108,2,1.34,panicky,3,1,-1.34,68,9,5,0,0.7833803
4,1,30,4,3,1.34,puppet,2,0,-1.34,69,152,6,1,0.7165308
4,1,30,140,1,1.34,blood,3,-1,-1.34,70,84,6,1,0.4665602
4,1,30,141,2,1.34,kwerdged,1,0,-1.34,71,307,5,1,0.5999334
4,1,30,123,3,1.34,shreeff,1,0,-1.34,72,354,5,1,0.7500587
4,1,30,92,1,1.34,gwelched,1,0,-1.34,73,292,5,1,0.4999766
4,1,30,31,3,1.34,silent,2,0,-1.34,74,151,6,1,0.6167209
4,1,30,22,3,1.34,violence,3,0,-1.34,75,38,6,1,0.5666541
4,1,30,103,2,1.34,jeeched,1,0,-1.34,76,216,5,1,0.5666152
4,1,30,131,2,1.34,klorche,1,0,-1.34,77,327,5,1,0.5000503
4,1,30,68,3,1.34,threat,3,0,-1.34,78,33,6,1,0.4849251
4,1,30,104,3,1.34,stab,3,0,-1.34,79,37,6,1,0.5832997
4,1,30,22,3,1.34,skwyft,1,0,-1.34,80,236,5,1,0.5665549
4,1,30,41,1,1.34,stouged,1,0,-1.34,81,293,5,1,0.6999199
4,1,30,121,2,1.34,threatened,3,1,-1.34,82,7,6,1,0.566707
4,1,30,123,1,1.34,swizned,1,0,-1.34,83,388,5,1,0.5333652
4,1,30,68,3,1.34,klupsed,1,0,-1.34,84,231,5,1,0.5833142
4,1,30,92,2,1.34,doom,3,1,-1.34,85,13,6,1,0.5333209
4,1,30,33,1,1.34,kwerdged,1,0,-1.34,86,373,6,0,0.5832984
4,1,30,29,3,1.34,meekes,1,0,-1.34,87,239,5,1,1.1666036
4,1,30,123,1,1.34,swizned,1,0,-1.34,88,289,5,1,0.5500853
4,1,30,22,2,1.34,facilitate,2,0,-1.34,89,99,6,1,0.7333441
4,1,30,131,1,1.34,meekes,1,0,-1.34,90,272,5,1,0.7999496
4,1,30,41,3,1.34,runner,2,0,-1.34,91,146,6,1,0.6667181
4,1,30,63,2,1.34,gwelched,1,0,-1.34,92,226,5,1,1.2001731
4,1,30,130,2,1.34,death,3,1,-1.34,93,25,6,1,0.9332029
4,1,30,101,2,1.34,surnd,1,0,-1.34,94,319,5,1,0.5832951
4,1,30,92,1,1.34,concert,2,0,-1.34,95,193,6,1,0.5833228
4,1,30,103,1,1.34,klorche,1,0,-1.34,96,393,5,1,0.5666263
4,1,30,172,3,1.34,choke,3,0,-1.34,97,49,6,1,0.5499032
4,1,30,41,2,1.34,slash,3,1,-1.34,98,29,6,1,0.8696283
4,1,30,130,2,1.34,swizned,1,0,-1.34,99,322,5,1,0.6665846
4,1,30,22,2,1.34,klupsed,1,0,-1.34,100,198,5,1,0.5020599
4,1,30,41,2,1.34,win,2,0,-1.34,101,128,6,1,0.6832389
4,1,30,143,1,1.34,klupsed,1,0,-1.34,102,363,5,1,0.5499044
4,1,30,4,3,1.34,sckwug,1,0,-1.34,103,350,5,1,0.550081
4,1,30,21,2,1.34,troaphed,1,0,-1.34,104,314,5,1,1.1999484
4,1,30,92,1,1.34,torture,3,-1,-1.34,105,94,6,1,0.6500739
4,1,30,173,2,1.34,puppet,2,0,-1.34,106,119,6,1,0.500002
4,1,30,68,1,1.34,violence,3,-1,-1.34,107,71,6,1,0.484305
4,1,30,125,3,1.34,greet,2,0,-1.34,108,164,6,1,0.7502694
4,1,30,92,2,1.34,slurms,1,0,-1.34,109,211,5,1,0.6167275
4,1,30,132,3,1.34,roller,2,0,-1.34,110,150,6,1,0.8833157
4,1,30,128,1,1.34,suffering,3,-1,-1.34,111,72,6,1,1.1333576
4,1,30,26,1,1.34,shoot,3,-1,-1.34,112,93,6,1,0.566524
4,1,30,29,2,1.34,kroit,1,0,-1.34,113,230,5,1,0.5499651
4,1,30,29,1,1.34,sckwug,1,0,-1.34,114,383,5,1,0.5351136
4,1,30,104,3,1.34,customer,2,0,-1.34,115,136,6,1,0.8165153
4,1,30,128,2,1.34,sckrerphth,1,0,-1.34,116,214,5,1,0.5000757
4,1,30,41,3,1.34,shrylk,1,0,-1.34,117,245,5,1,0.516604
4,1,30,63,1,1.34,comment,2,0,-1.34,118,188,6,1,0.5999494
4,1,30,63,3,1.34,terrorized,3,0,-1.34,119,63,6,1,0.6332192
4,1,30,173,2,1.34,sckwug,1,0,-1.34,120,218,5,1,0.4666471
4,1,30,140,1,1.34,jeeched,1,0,-1.34,121,381,5,1,0.7832699
4,1,30,103,3,1.34,staufed,1,0,-1.34,122,252,5,1,0.5166981
4,1,30,104,1,1.34,ghoond,1,0,-1.34,123,279,5,1,0.5166713
4,1,30,123,3,1.34,shreeff,1,0,-1.34,124,255,5,1,0.4166798
4,1,30,12,2,1.34,modulation,2,0,-1.34,125,107,6,1,0.5333254
4,1,30,125,2,1.34,stab,3,1,-1.34,126,4,6,1,0.833265
4,1,30,101,3,1.34,signals,2,0,-1.34,127,145,6,1,0.7498872
4,1,30,143,2,1.34,massacre,3,1,-1.34,128,14,6,1,0.6332821
4,1,30,22,2,1.34,klupsed,1,0,-1.34,129,297,5,1,0.5502379
4,1,30,101,1,1.34,staufed,1,0,-1.34,130,384,5,1,0.650181
4,1,30,130,1,1.34,slurms,1,0,-1.34,131,277,5,1,1.3666964
4,1,30,108,3,1.34,suffering,3,0,-1.34,132,39,6,1,0.6179835
4,1,30,123,2,1.34,invited,2,0,-1.34,133,100,6,1,0.5832885
4,1,30,26,2,1.34,skwyft,1,0,-1.34,134,203,5,1,0.5499863
4,1,30,117,1,1.34,pawp,1,0,-1.34,135,275,5,1,0.6167308
4,1,30,121,1,1.34,count,2,0,-1.34,136,182,6,1,0.5833049
4,1,30,172,1,1.34,thwipte,1,0,-1.34,137,273,5,1,0.5167518
4,1,30,141,2,1.34,evil,3,1,-1.34,138,10,6,1,0.5851451
4,1,30,105,3,1.34,assault,3,0,-1.34,139,35,5,0,0.4332976
4,1,30,12,2,1.34,terrified,3,1,-1.34,140,8,6,1,0.7334083
4,1,30,29,2,1.34,greet,2,0,-1.34,141,131,6,1,0.5167251
4,1,30,92,3,1.34,troaphed,1,0,-1.34,142,248,5,1,0.583341
4,1,30,130,1,1.34,slurms,1,0,-1.34,143,376,5,1,0.6332806
4,1,30,130,2,1.34,swizned,1,0,-1.34,144,223,5,1,0.5167188
4,1,30,21,1,1.34,process,2,0,-1.34,145,168,6,1,0.5003971
4,1,30,31,3,1.34,sckroax,1,0,-1.34,146,250,6,0,0.4999489
4,1,30,33,3,1.34,thwipte,1,0,-1.34,147,339,5,1,0.8833175
4,1,30,4,1,1.34,agonized,3,-1,-1.34,148,92,6,1,0.6665399
4,1,30,121,3,1.34,sckermbth,1,0,-1.34,149,331,5,1,1.016539
4,1,30,12,1,1.34,shoatt,1,0,-1.34,150,394,5,1,0.6499098
4,1,30,130,3,1.34,process,2,0,-1.34,151,135,6,1,0.6167519
4,1,30,121,3,1.34,injury,3,0,-1.34,152,34,6,1,0.8665367
4,1,30,138,3,1.34,gwelched,1,0,-1.34,153,358,5,1,0.6000731
4,1,30,104,2,1.34,fatal,3,1,-1.34,154,24,6,1,0.701142
4,1,30,69,1,1.34,injury,3,-1,-1.34,155,67,6,1,0.7665616
4,1,30,128,2,1.34,activities,2,0,-1.34,156,115,6,1,0.8000425
4,1,30,69,2,1.34,assimilated,2,0,-1.34,157,120,6,1,0.6834124
4,1,30,103,1,1.34,refuge,2,0,-1.34,158,195,6,1,0.5499244
4,1,30,18,2,1.34,clewm,1,0,-1.34,159,303,5,1,0.5998992
4,1,30,132,2,1.34,devil,3,1,-1.34,160,11,6,1,0.6833648
4,1,30,33,2,1.34,murder,3,1,-1.34,161,23,6,1,0.6000726
4,1,30,131,2,1.34,terrorized,3,1,-1.34,162,30,6,1,0.6333606
4,1,30,31,1,1.34,retold,2,0,-1.34,163,189,6,1,0.5999768
4,1,30,22,3,1.34,over,2,0,-1.34,164,137,6,1,0.6999431
4,1,30,33,1,1.34,evil,3,-1,-1.34,165,76,6,1,0.5165878
4,1,30,132,3,1.34,jeeched,1,0,-1.34,166,249,5,1,0.6666741
4,1,30,21,3,1.34,evil,3,0,-1.34,167,43,6,1,0.6499496
4,1,30,18,3,1.34,devil,3,0,-1.34,168,44,6,1,0.6665599
4,1,30,140,2,1.34,scroines,1,0,-1.34,169,224,5,1,0.9167354
4,1,30,132,1,1.34,strangle,3,-1,-1.34,170,85,6,1,0.5833172
4,1,30,26,1,1.34,satisfied,2,0,-1.34,171,192,6,1,0.5332763
4,1,30,26,3,1.34,surnd,1,0,-1.34,172,352,5,1,0.566662
4,1,30,103,3,1.34,assimilated,2,0,-1.34,173,153,6,1,0.6165446
4,1,30,140,3,1.34,ability,2,0,-1.34,174,139,6,1,1.202041
4,1,30,33,2,1.34,wraxte,1,0,-1.34,175,320,5,1,1.033287
4,1,30,69,3,1.34,scroines,1,0,-1.34,176,257,5,1,1.0999531
4,1,30,63,2,1.34,concert,2,0,-1.34,177,127,6,1,0.5499407
4,1,30,141,2,1.34,warm,2,0,-1.34,178,109,6,1,0.4500339
4,1,30,128,3,1.34,shoot,3,0,-1.34,179,60,6,1,0.4833202
4,1,30,31,1,1.34,shreeff,1,0,-1.34,180,387,5,1,0.6185983
4,1,30,143,3,1.34,thwaivvs,1,0,-1.34,181,342,5,1,0.5500466
4,1,30,4,2,1.34,sckroax,1,0,-1.34,182,217,5,1,0.5000781
4,1,30,105,1,1.34,greet,2,0,-1.34,183,197,6,1,0.4998966
4,1,30,108,3,1.34,open,2,0,-1.34,184,138,6,1,0.6166533
4,1,30,123,1,1.34,leisure,2,0,-1.34,185,190,6,1,0.6166937
4,1,30,172,1,1.34,panicky,3,-1,-1.34,186,75,6,1,0.9845341
4,1,30,68,1,1.34,skwyft,1,0,-1.34,187,368,5,1,0.6338855
4,1,30,33,1,1.34,kwerdged,1,0,-1.34,188,274,6,0,0.7000153
4,1,30,21,2,1.34,count,2,0,-1.34,189,116,6,1,0.8999709
4,1,30,104,1,1.34,beat,3,-1,-1.34,190,81,6,1,1.0680941
4,1,30,131,1,1.34,terrified,3,-1,-1.34,191,74,6,1,0.5665562
4,1,30,31,3,1.34,sckroax,1,0,-1.34,192,349,5,1,0.7500539
4,1,30,18,2,1.34,suffering,3,1,-1.34,193,6,6,1,0.6499428
4,1,30,172,2,1.34,wheiche,1,0,-1.34,194,225,5,1,0.6499594
4,1,30,101,3,1.34,slurms,1,0,-1.34,195,343,5,1,0.6333929
4,1,30,22,1,1.34,zuinte,1,0,-1.34,196,367,5,1,0.5499303
4,1,30,138,1,1.34,shrylk,1,0,-1.34,197,278,5,1,0.4008403
4,1,30,101,3,1.34,doom,3,0,-1.34,198,46,6,1,0.5666735
4,1,30,140,3,1.34,threatened,3,0,-1.34,199,40,6,1,0.4666098
4,1,30,29,3,1.34,meekes,1,0,-1.34,200,338,5,1,0.5667064
4,1,30,29,1,1.34,sckwug,1,0,-1.34,201,284,5,1,0.5832769
4,1,30,103,2,1.34,blood,3,1,-1.34,202,18,6,1,1.0000153
4,1,30,92,3,1.34,kill,3,0,-1.34,203,50,6,1,0.5666954
4,1,30,108,1,1.34,sckrerphth,1,0,-1.34,204,379,5,1,0.5998773
4,1,30,21,3,1.34,warm,2,0,-1.34,205,142,6,1,0.833288
4,1,30,63,2,1.34,torture,3,1,-1.34,206,28,6,1,0.5833885
4,1,30,41,3,1.34,shrylk,1,0,-1.34,207,344,5,1,0.5666329
4,1,30,143,3,1.34,thwaivvs,1,0,-1.34,208,243,5,1,0.7331684
4,1,30,4,1,1.34,poetry,2,0,-1.34,209,191,6,1,0.7833717
4,1,30,121,2,1.34,ability,2,0,-1.34,210,106,6,1,0.8500319
4,1,30,128,3,1.34,wheiche,1,0,-1.34,211,357,5,1,0.5332558
4,1,30,121,2,1.34,bleills,1,0,-1.34,212,304,5,1,0.5833311
4,1,30,123,2,1.34,sckermbth,1,0,-1.34,213,298,5,1,0.5166204
4,1,30,132,1,1.34,sckroax,1,0,-1.34,214,283,5,1,0.5339159
4,1,30,29,2,1.34,victimized,3,1,-1.34,215,32,6,1,0.7167351
4,1,30,143,1,1.34,threat,3,-1,-1.34,216,66,6,1,0.7332825
4,1,30,143,1,1.34,facilitate,2,0,-1.34,217,165,6,1,0.516627
4,1,30,140,2,1.34,poetry,2,0,-1.34,218,125,6,1,0.4333328
4,1,30,128,1,1.34,clewm,1,0,-1.34,219,369,5,1,0.8001464
4,1,30,33,3,1.34,thwipte,1,0,-1.34,220,240,5,1,0.6832664
4,1,30,26,2,1.34,over,2,0,-1.34,221,104,6,1,0.6334015
4,1,30,121,1,1.34,troaphed,1,0,-1.34,222,281,5,1,0.9000115
4,1,30,101,1,1.34,assimilated,2,0,-1.34,223,186,6,1,0.833218
4,1,30,172,3,1.34,sckrerphth,1,0,-1.34,224,247,5,1,0.5000204
4,1,30,103,2,1.34,roller,2,0,-1.34,225,117,6,1,0.7165948
4,1,30,125,3,1.34,kroit,1,0,-1.34,226,362,5,1,0.7165955
4,1,30,121,1,1.34,troaphed,1,0,-1.34,227,380,5,1,0.6184701
4,1,30,31,2,1.34,prize,2,0,-1.34,228,130,6,1,1.0333312
4,1,30,121,3,1.34,sckermbth,1,0,-1.34,229,232,5,1,0.5498941
4,1,30,117,2,1.34,assault,3,1,-1.34,230,2,6,1,0.5833195
4,1,30,69,1,1.34,sckermbth,1,0,-1.34,231,364,5,1,0.5500235
4,1,30,123,3,1.34,retold,2,0,-1.34,232,156,6,1,0.6667143
4,1,30,172,1,1.34,sitter,2,0,-1.34,233,174,6,1,0.8332885
4,1,30,26,2,1.34,violence,3,1,-1.34,234,5,6,1,0.51653
4,1,30,132,1,1.34,silent,2,0,-1.34,235,184,6,1,0.4833641
4,1,30,138,3,1.34,concert,2,0,-1.34,236,160,6,1,0.4166689
4,1,30,12,3,1.34,wraxte,1,0,-1.34,237,353,5,1,0.6331537
4,1,30,105,3,1.34,plal,1,0,-1.34,238,332,5,1,0.6499584
4,1,30,141,2,1.34,kwerdged,1,0,-1.34,239,208,5,1,0.6333822
4,1,30,117,3,1.34,swizned,1,0,-1.34,240,256,5,1,0.5832812
4,1,30,131,3,1.34,prize,2,0,-1.34,241,163,6,1,0.6333356
4,1,30,18,1,1.34,assault,3,-1,-1.34,242,68,6,1,0.6667246
4,1,30,68,3,1.34,klupsed,1,0,-1.34,243,330,5,1,0.6000491
4,1,30,69,1,1.34,invited,2,0,-1.34,244,166,6,1,0.7333842
4,1,30,141,1,1.34,threatened,3,-1,-1.34,245,73,6,1,0.8666233
4,1,30,143,2,1.34,runner,2,0,-1.34,246,113,6,1,0.4832637
4,1,30,103,3,1.34,mutilated,3,0,-1.34,247,54,6,1,0.5833232
4,1,30,68,3,1.34,facilitate,2,0,-1.34,248,132,6,1,0.5167007
4,1,30,140,3,1.34,bleills,1,0,-1.34,249,337,5,1,0.5999458
4,1,30,68,2,1.34,art,2,0,-1.34,250,114,6,1,0.5680714
4,1,30,29,3,1.34,modulation,2,0,-1.34,251,140,6,1,0.5667183
4,1,30,92,2,1.34,slurms,1,0,-1.34,252,310,5,1,0.6666322
4,1,30,101,1,1.34,staufed,1,0,-1.34,253,285,6,0,0.6000524
4,1,30,41,2,1.34,stouged,1,0,-1.34,254,227,5,1,1.2666494
4,1,30,31,1,1.34,shreeff,1,0,-1.34,255,288,5,1,0.5332343
4,1,30,4,1,1.34,scroines,1,0,-1.34,256,389,5,1,0.5499477
4,1,30,4,1,1.34,scroines,1,0,-1.34,257,290,5,1,0.6665451
4,1,30,108,3,1.34,clewm,1,0,-1.34,258,336,5,1,0.5999607
4,1,30,68,2,1.34,ghoond,1,0,-1.34,259,213,5,1,0.5999477
4,1,30,172,1,1.34,thwipte,1,0,-1.34,260,372,5,1,0.5667183
4,1,30,125,2,1.34,zuinte,1,0,-1.34,261,202,5,1,0.4332648
4,1,30,143,3,1.34,hate,3,0,-1.34,262,45,6,1,0.6332357
4,1,30,131,3,1.34,intimated,3,0,-1.34,263,64,6,1,0.9842506
4,1,30,22,1,1.34,customer,2,0,-1.34,264,169,6,1,0.5499625
4,1,30,103,2,1.34,jeeched,1,0,-1.34,265,315,5,1,0.550057
4,1,30,21,3,1.34,kwerdged,1,0,-1.34,266,340,5,1,0.6834048
4,1,30,101,2,1.34,phone,2,0,-1.34,267,121,6,1,0.6666351
4,1,30,41,1,1.34,slash,3,-1,-1.34,268,95,5,0,0.6832584
4,1,30,33,2,1.34,wraxte,1,0,-1.34,269,221,5,1,0.633322
4,1,30,117,2,1.34,plal,1,0,-1.34,270,299,5,1,0.8332891
4,1,30,130,1,1.34,signals,2,0,-1.34,271,178,6,1,0.5998703
4,1,30,132,3,1.34,jeeched,1,0,-1.34,272,348,5,1,0.6667079
4,1,30,18,2,1.34,open,2,0,-1.34,273,105,6,1,0.9167009
4,1,30,130,1,1.34,doom,3,-1,-1.34,274,79,6,1,0.8832636
4,1,30,63,1,1.34,wraxte,1,0,-1.34,275,386,5,1,0.5832375
4,1,30,105,1,1.34,kroit,1,0,-1.34,276,296,5,1,0.5500641
4,1,30,143,2,1.34,shrylk,1,0,-1.34,277,311,5,1,0.5332285
4,1,30,173,1,1.34,scream,3,-1,-1.34,278,88,6,1,0.6332646
4,1,30,105,3,1.34,formal,2,0,-1.34,279,134,6,1,0.516567
4,1,30,105,2,1.34,thwaivvs,1,0,-1.34,280,210,5,1,0.5999646
4,1,30,12,2,1.34,meekes,1,0,-1.34,281,206,5,1,0.6334298
4,1,30,92,2,1.34,signals,2,0,-1.34,282,112,6,1,0.5667487
4,1,30,12,2,1.34,meekes,1,0,-1.34,283,305,5,1,0.5499435
4,1,30,12,1,1.34,intimated,3,-1,-1.34,284,97,6,1,0.6000292
4,1,30,132,2,1.34,leaping,2,0,-1.34,285,110,6,1,0.8832621
4,1,30,125,3,1.34,victimized,3,0,-1.34,286,65,6,1,0.5666844
4,1,30,128,1,1.34,open,2,0,-1.34,287,171,6,1,0.4999552
4,1,30,12,1,1.34,shoatt,1,0,-1.34,288,295,5,1,0.6165425
4,1,30,101,3,1.34,slurms,1,0,-1.34,289,244,5,1,0.6999424
4,1,30,130,2,1.34,leisure,2,0,-1.34,290,124,6,1,0.6666945
4,1,30,123,1,1.34,death,3,-1,-1.34,291,91,6,1,0.5166
4,1,30,117,1,1.34,leaping,2,0,-1.34,292,176,6,1,0.5832921
4,1,30,69,3,1.34,scroines,1,0,-1.34,293,356,5,1,0.5499525
4,1,30,117,3,1.34,swizned,1,0,-1.34,294,355,5,1,0.5666854
4,1,30,105,2,1.34,hate,3,1,-1.34,295,12,6,1,0.5832804
4,1,30,12,3,1.34,comment,2,0,-1.34,296,155,6,1,0.4665779
4,1,30,33,3,1.34,sitter,2,0,-1.34,297,141,6,1,0.7333304
4,1,30,18,3,1.34,leaping,2,0,-1.34,298,143,6,1,0.500055
4,1,30,63,2,1.34,gwelched,1,0,-1.34,299,325,5,1,0.4833315
4,1,30,108,2,1.34,thwipte,1,0,-1.34,300,207,5,1,0.5832997
4,1,30,117,3,1.34,leisure,2,0,-1.34,301,157,6,1,0.9683682
4,1,30,69,1,1.34,sckermbth,1,0,-1.34,302,265,5,1,0.5500515
4,1,30,121,3,1.34,invited,2,0,-1.34,303,133,6,1,0.6000187
4,1,30,132,2,1.34,pawp,1,0,-1.34,304,209,5,1,0.5167107
4,1,30,117,2,1.34,formal,2,0,-1.34,305,101,6,1,0.5333059
4,1,30,105,3,1.34,plal,1,0,-1.34,306,233,5,1,0.4165912
4,1,30,29,1,1.34,agony,3,-1,-1.34,307,86,6,1,0.7505709
4,1,30,172,2,1.34,wheiche,1,0,-1.34,308,324,5,1,0.6347019
4,1,30,29,3,1.34,terrified,3,0,-1.34,309,41,6,1,0.6999914
4,1,30,125,2,1.34,zuinte,1,0,-1.34,310,301,5,1,0.6000428
4,1,30,108,1,1.34,sckrerphth,1,0,-1.34,311,280,5,1,0.6515567
4,1,30,101,2,1.34,surnd,1,0,-1.34,312,220,5,1,0.5852005
4,1,30,26,1,1.34,wheiche,1,0,-1.34,313,291,5,1,0.533279
4,1,30,26,1,1.34,wheiche,1,0,-1.34,314,390,5,1,0.4833037
4,1,30,123,2,1.34,injury,3,1,-1.34,315,1,6,1,0.5331809
4,1,30,141,3,1.34,ghoond,1,0,-1.34,316,345,5,1,0.5999538
4,1,30,138,1,1.34,massacre,3,-1,-1.34,317,80,6,1,0.5998415
4,1,30,12,1,1.34,prize,2,0,-1.34,318,196,6,1,0.6166755
4,1,30,143,3,1.34,mandate,2,0,-1.34,319,144,6,1,0.5666403
4,1,30,104,2,1.34,retold,2,0,-1.34,320,123,6,1,0.6499351
4,1,30,41,2,1.34,stouged,1,0,-1.34,321,326,5,1,1.049917
4,1,30,131,1,1.34,modulation,2,0,-1.34,322,173,6,1,0.6666357
4,1,30,103,3,1.34,staufed,1,0,-1.34,323,351,5,1,0.5999499
4,1,30,18,1,1.34,plal,1,0,-1.34,324,266,5,1,0.7666361
4,1,30,101,1,1.34,mutilated,3,-1,-1.34,325,87,6,1,0.6333264
4,1,30,69,2,1.34,mutilated,3,1,-1.34,326,21,6,1,0.7166536
4,1,30,21,1,1.34,gulged,1,0,-1.34,327,366,5,1,0.566711
4,1,30,29,1,1.34,puppet,2,0,-1.34,328,185,6,1,0.6166253
4,1,30,173,1,1.34,surnd,1,0,-1.34,329,385,5,1,0.5165875
4,1,30,69,2,1.34,staufed,1,0,-1.34,330,318,5,1,0.5833086
4,1,30,117,2,1.34,plal,1,0,-1.34,331,200,5,1,0.5499474
4,1,30,121,1,1.34,kill,3,-1,-1.34,332,83,6,1,0.816679
4,1,30,138,1,1.34,shrylk,1,0,-1.34,333,377,5,1,0.483401
4,1,30,141,1,1.34,bleills,1,0,-1.34,334,271,5,1,0.6499369
4,1,30,31,3,1.34,strangle,3,0,-1.34,335,52,6,1,0.5500547
4,1,30,128,1,1.34,clewm,1,0,-1.34,336,270,5,1,0.5666553
4,1,30,140,2,1.34,scroines,1,0,-1.34,337,323,5,1,0.6331978
4,1,30,138,2,1.34,gulged,1,0,-1.34,338,300,5,1,0.6166355
4,1,30,68,2,1.34,ghoond,1,0,-1.34,339,312,5,1,0.8666193
4,1,30,141,1,1.34,bleills,1,0,-1.34,340,370,5,1,0.5666952
4,1,30,172,3,1.34,activities,2,0,-1.34,341,148,6,1,0.5667165
4,1,30,128,3,1.34,wheiche,1,0,-1.34,342,258,5,1,0.5166176
4,1,30,104,2,1.34,shreeff,1,0,-1.34,343,321,5,1,0.5522414
4,1,30,105,1,1.34,victimized,3,-1,-1.34,344,98,6,1,0.599992
4,1,30,4,2,1.34,strangle,3,1,-1.34,345,19,6,1,0.5010632
4,1,30,68,1,1.34,over,2,0,-1.34,346,170,6,1,0.6670722
4,1,30,123,2,1.34,sckermbth,1,0,-1.34,347,199,5,1,0.6167325
4,1,30,172,3,1.34,sckrerphth,1,0,-1.34,348,346,5,1,0.4167136
4,1,30,132,3,1.34,blood,3,0,-1.34,349,51,6,1,0.4833306
4,1,30,125,1,1.34,hate,3,-1,-1.34,350,78,6,1,0.6166637
4,1,30,92,1,1.34,gwelched,1,0,-1.34,351,391,5,1,1.2499403
4,1,30,41,3,1.34,massacre,3,0,-1.34,352,47,6,1,0.6166336
4,1,30,103,1,1.34,terrorized,3,-1,-1.34,353,96,6,1,0.5172863
4,1,30,33,3,1.34,panicky,3,0,-1.34,354,42,6,1,0.5499587
4,1,30,131,3,1.34,shoatt,1,0,-1.34,355,361,5,1,0.5833935
4,1,30,26,3,1.34,scream,3,0,-1.34,356,55,6,1,0.5167039
4,1,30,173,3,1.34,stouged,1,0,-1.34,357,260,5,1,0.8999538
4,1,30,131,2,1.34,refuge,2,0,-1.34,358,129,6,1,0.5675532
4,1,30,140,3,1.34,bleills,1,0,-1.34,359,238,5,1,0.9333693
4,1,30,18,1,1.34,formal,2,0,-1.34,360,167,6,1,0.6333203
4,1,30,18,1,1.34,plal,1,0,-1.34,361,365,5,1,0.5678892
4,1,30,63,3,1.34,klorche,1,0,-1.34,362,261,5,1,0.599953
4,1,30,108,1,1.34,choke,3,-1,-1.34,363,82,6,1,0.5833959
4,1,30,69,3,1.34,poetry,2,0,-1.34,364,158,6,1,0.7999199
4,1,30,121,2,1.34,bleills,1,0,-1.34,365,205,5,1,0.5332075
4,1,30,41,1,1.34,stouged,1,0,-1.34,366,392,5,1,0.6666
4,1,30,173,3,1.34,stouged,1,0,-1.34,367,359,5,1,0.5166813
4,1,30,140,2,1.34,agonized,3,1,-1.34,368,26,6,1,0.7666238
4,1,30,172,2,1.34,shoot,3,1,-1.34,369,27,6,1,0.8673387
4,1,30,138,2,1.34,gulged,1,0,-1.34,370,201,5,1,1.1165347
4,1,30,138,3,1.34,torture,3,0,-1.34,371,61,6,1,0.7165304
4,1,30,130,3,1.34,gulged,1,0,-1.34,372,333,6,0,0.851888
4,1,30,138,3,1.34,gwelched,1,0,-1.34,373,259,5,1,0.7165223
4,1,30,117,3,1.34,death,3,0,-1.34,374,58,6,1,0.8331871
4,1,30,68,2,1.34,beat,3,1,-1.34,375,15,6,1,0.5332915
4,1,30,131,3,1.34,shoatt,1,0,-1.34,376,262,5,1,0.5498949
4,1,30,141,3,1.34,ghoond,1,0,-1.34,377,246,5,1,0.4832915
4,1,30,131,2,1.34,klorche,1,0,-1.34,378,228,5,1,0.4165569
4,1,30,173,3,1.34,slash,3,0,-1.34,379,62,6,1,0.583305
4,1,30,26,2,1.34,skwyft,1,0,-1.34,380,302,5,1,0.567316
4,1,30,104,3,1.34,zuinte,1,0,-1.34,381,235,6,0,0.5167652
4,1,30,21,1,1.34,wound,3,-1,-1.34,382,69,6,1,0.6844309
4,1,30,18,3,1.34,pawp,1,0,-1.34,383,242,5,1,0.6332754
4,1,30,125,1,1.34,thwaivvs,1,0,-1.34,384,375,5,1,0.916616
4,1,30,21,2,1.34,kill,3,1,-1.34,385,17,6,1,0.516581
4,1,30,31,2,1.34,intimated,3,1,-1.34,386,31,6,1,0.5167121
4,1,30,108,2,1.34,sitter,2,0,-1.34,387,108,6,1,0.5833009
4,1,30,104,3,1.34,zuinte,1,0,-1.34,388,334,5,1,0.5667491
4,1,30,26,3,1.34,phone,2,0,-1.34,389,154,6,1,0.6666207
4,1,30,131,1,1.34,meekes,1,0,-1.34,390,371,5,1,0.5833237
4,1,30,18,2,1.34,clewm,1,0,-1.34,391,204,5,1,0.717383
4,1,30,125,2,1.34,customer,2,0,-1.34,392,103,6,1,0.5665602
4,1,30,104,1,1.34,art,2,0,-1.34,393,180,6,1,0.5334183
4,1,30,69,3,1.34,agonized,3,0,-1.34,394,59,6,1,0.5499701
4,1,30,31,1,1.34,fatal,3,-1,-1.34,395,90,6,1,0.7000682
5,1,30,33,1,1.34,kwerdged,1,0,-1.34,0,373,6,1,0.5499565
5,1,30,41,1,1.34,stouged,1,0,-1.34,1,392,5,0,0.6500182
5,1,30,69,1,1.34,injury,3,-1,-1.34,2,67,5,1,0.5000618
5,1,30,128,1,1.34,clewm,1,0,-1.34,3,270,6,1,0.6333647
5,1,30,130,3,1.34,process,2,0,-1.34,4,135,5,1,0.4666813
5,1,30,31,1,1.34,retold,2,0,-1.34,5,189,5,1,0.5165516
5,1,30,132,1,1.34,strangle,3,-1,-1.34,6,85,5,1,0.4000408
5,1,30,172,2,1.34,satisfied,2,0,-1.34,7,126,5,1,0.4166079
5,1,30,143,1,1.34,facilitate,2,0,-1.34,8,165,5,1,0.5833961
5,1,30,69,2,1.34,staufed,1,0,-1.34,9,318,6,1,0.5833053
5,1,30,12,1,1.34,prize,2,0,-1.34,10,196,5,1,0.4165189
5,1,30,138,3,1.34,gwelched,1,0,-1.34,11,259,6,1,1.3665741
5,1,30,29,1,1.34,puppet,2,0,-1.34,12,185,5,1,0.5664954
5,1,30,104,3,1.34,stab,3,0,-1.34,13,37,5,1,0.4499522
5,1,30,131,3,1.34,prize,2,0,-1.34,14,163,5,1,0.4166411
5,1,30,92,1,1.34,concert,2,0,-1.34,15,193,5,1,0.4332862
5,1,30,31,1,1.34,shreeff,1,0,-1.34,16,288,6,1,0.7351111
5,1,30,103,1,1.34,klorche,1,0,-1.34,17,393,6,1,0.8665982
5,1,30,108,2,1.34,thwipte,1,0,-1.34,18,207,6,1,0.5666826
5,1,30,18,2,1.34,suffering,3,1,-1.34,19,6,5,1,0.5332998
5,1,30,21,2,1.34,count,2,0,-1.34,20,116,5,1,0.4832928
5,1,30,92,3,1.34,count,2,0,-1.34,21,149,5,1,0.4833182
5,1,30,132,1,1.34,silent,2,0,-1.34,22,184,5,1,0.4499768
5,1,30,18,1,1.34,formal,2,0,-1.34,23,167,5,1,0.4679373
5,1,30,33,1,1.34,warm,2,0,-1.34,24,175,5,1,0.3666327
5,1,30,117,2,1.34,plal,1,0,-1.34,25,200,6,1,0.5333792
5,1,30,22,1,1.34,zuinte,1,0,-1.34,26,268,6,1,0.5665798
5,1,30,141,3,1.34,art,2,0,-1.34,27,147,5,1,0.4500529
5,1,30,121,2,1.34,bleills,1,0,-1.34,28,304,6,1,0.5498895
5,1,30,29,3,1.34,meekes,1,0,-1.34,29,338,6,1,0.6166907
5,1,30,172,1,1.34,panicky,3,-1,-1.34,30,75,5,1,0.4842564
5,1,30,123,1,1.34,leisure,2,0,-1.34,31,190,5,1,0.6332677
5,1,30,141,2,1.34,kwerdged,1,0,-1.34,32,208,6,1,0.5833512
5,1,30,172,1,1.34,thwipte,1,0,-1.34,33,372,6,1,0.5500619
5,1,30,68,2,1.34,ghoond,1,0,-1.34,34,213,6,1,0.649963
5,1,30,21,1,1.34,gulged,1,0,-1.34,35,366,5,0,0.6678848
5,1,30,132,3,1.34,jeeched,1,0,-1.34,36,249,6,1,1.0833974
5,1,30,140,3,1.34,bleills,1,0,-1.34,37,337,6,1,0.5666381
5,1,30,105,2,1.34,hate,3,1,-1.34,38,12,5,1,0.4832196
5,1,30,68,1,1.34,skwyft,1,0,-1.34,39,368,6,1,0.4848368
5,1,30,138,2,1.34,gulged,1,0,-1.34,40,201,5,0,0.6666139
5,1,30,140,2,1.34,agonized,3,1,-1.34,41,26,5,1,0.6332773
5,1,30,33,2,1.34,wraxte,1,0,-1.34,42,221,6,1,0.5499628
5,1,30,33,2,1.34,murder,3,1,-1.34,43,23,5,1,0.499975
5,1,30,172,3,1.34,activities,2,0,-1.34,44,148,5,1,0.4167338
5,1,30,128,2,1.34,activities,2,0,-1.34,45,115,5,1,0.4499682
5,1,30,63,1,1.34,wraxte,1,0,-1.34,46,386,6,1,0.5334129
5,1,30,18,3,1.34,pawp,1,0,-1.34,47,341,6,1,0.6167235
5,1,30,21,1,1.34,wound,3,-1,-1.34,48,69,5,1,0.5686828
5,1,30,63,3,1.34,klorche,1,0,-1.34,49,360,6,1,0.5333559
5,1,30,18,2,1.34,clewm,1,0,-1.34,50,204,6,1,0.6500113
5,1,30,130,3,1.34,wound,3,0,-1.34,51,36,5,1,0.4666352
5,1,30,68,1,1.34,skwyft,1,0,-1.34,52,269,6,1,0.5333254
5,1,30,131,1,1.34,modulation,2,0,-1.34,53,173,5,1,0.5512713
5,1,30,143,3,1.34,hate,3,0,-1.34,54,45,5,1,0.5168033
5,1,30,4,2,1.34,silent,2,0,-1.34,55,118,5,1,0.4166476
5,1,30,68,1,1.34,violence,3,-1,-1.34,56,71,5,1,0.4499871
5,1,30,41,2,1.34,slash,3,1,-1.34,57,29,5,1,0.4332518
5,1,30,121,3,1.34,invited,2,0,-1.34,58,133,5,1,0.4849987
5,1,30,125,2,1.34,zuinte,1,0,-1.34,59,301,6,1,0.5666242
5,1,30,131,2,1.34,refuge,2,0,-1.34,60,129,5,1,0.5333725
5,1,30,141,1,1.34,threatened,3,-1,-1.34,61,73,5,1,0.6334201
5,1,30,132,2,1.34,devil,3,1,-1.34,62,11,5,1,0.4500696
5,1,30,104,1,1.34,art,2,0,-1.34,63,180,5,1,0.3833947
5,1,30,63,1,1.34,wraxte,1,0,-1.34,64,287,6,1,0.5999535
5,1,30,108,2,1.34,sitter,2,0,-1.34,65,108,5,1,1.2165975
5,1,30,130,1,1.34,slurms,1,0,-1.34,66,376,6,1,0.6500414
5,1,30,29,3,1.34,meekes,1,0,-1.34,67,239,6,1,0.667842
5,1,30,138,1,1.34,shrylk,1,0,-1.34,68,377,6,1,0.6499311
5,1,30,31,3,1.34,sckroax,1,0,-1.34,69,349,6,1,0.5833114
5,1,30,172,1,1.34,thwipte,1,0,-1.34,70,273,6,1,0.5000308
5,1,30,121,3,1.34,sckermbth,1,0,-1.34,71,331,6,1,0.4500663
5,1,30,41,2,1.34,stouged,1,0,-1.34,72,326,6,1,0.4500492
5,1,30,26,1,1.34,wheiche,1,0,-1.34,73,390,6,1,0.650083
5,1,30,138,3,1.34,torture,3,0,-1.34,74,61,5,1,0.6666468
5,1,30,92,3,1.34,kill,3,0,-1.34,75,50,5,1,0.5166855
5,1,30,29,2,1.34,victimized,3,1,-1.34,76,32,5,1,0.4666933
5,1,30,63,3,1.34,refuge,2,0,-1.34,77,162,5,1,0.4000568
5,1,30,143,2,1.34,massacre,3,1,-1.34,78,14,5,1,0.5332976
5,1,30,41,1,1.34,win,2,0,-1.34,79,194,5,1,0.4332965
5,1,30,12,1,1.34,shoatt,1,0,-1.34,80,295,6,1,0.4999909
5,1,30,69,2,1.34,assimilated,2,0,-1.34,81,120,5,1,0.4833259
5,1,30,104,1,1.34,ghoond,1,0,-1.34,82,279,6,1,0.6000552
5,1,30,103,1,1.34,terrorized,3,-1,-1.34,83,96,5,1,0.4999591
5,1,30,103,3,1.34,assimilated,2,0,-1.34,84,153,5,1,0.4833249
5,1,30,172,3,1.34,choke,3,0,-1.34,85,49,5,1,0.7010167
5,1,30,130,1,1.34,signals,2,0,-1.34,86,178,5,1,0.6671328
5,1,30,123,3,1.34,shreeff,1,0,-1.34,87,354,6,1,0.7340196
5,1,30,140,3,1.34,threatened,3,0,-1.34,88,40,5,1,0.4834388
5,1,30,4,1,1.34,poetry,2,0,-1.34,89,191,5,1,0.5193176
5,1,30,173,3,1.34,stouged,1,0,-1.34,90,260,5,0,0.8516721
5,1,30,132,2,1.34,pawp,1,0,-1.34,91,209,6,1,0.5499688
5,1,30,18,2,1.34,clewm,1,0,-1.34,92,303,6,1,0.5832813
5,1,30,12,2,1.34,modulation,2,0,-1.34,93,107,5,1,0.5006035
5,1,30,140,1,1.34,jeeched,1,0,-1.34,94,282,6,1,1.2999713
5,1,30,69,1,1.34,invited,2,0,-1.34,95,166,5,1,0.4499377
5,1,30,105,2,1.34,thwaivvs,1,0,-1.34,96,210,6,1,0.5353072
5,1,30,21,1,1.34,process,2,0,-1.34,97,168,5,1,0.5166564
5,1,30,4,3,1.34,sckwug,1,0,-1.34,98,350,6,1,0.5000715
5,1,30,12,3,1.34,wraxte,1,0,-1.34,99,254,6,1,0.5004306
5,1,30,128,3,1.34,satisfied,2,0,-1.34,100,159,5,1,0.5499679
5,1,30,172,1,1.34,sitter,2,0,-1.34,101,174,5,1,0.3499275
5,1,30,33,2,1.34,wraxte,1,0,-1.34,102,320,6,1,0.6166585
5,1,30,121,3,1.34,injury,3,0,-1.34,103,34,5,1,0.3665783
5,1,30,143,1,1.34,klupsed,1,0,-1.34,104,363,6,1,0.4999578
5,1,30,22,3,1.34,violence,3,0,-1.34,105,38,5,1,0.450573
5,1,30,69,3,1.34,scroines,1,0,-1.34,106,356,6,1,0.5683703
5,1,30,121,2,1.34,bleills,1,0,-1.34,107,205,6,1,0.5167284
5,1,30,92,1,1.34,torture,3,-1,-1.34,108,94,5,1,0.4499874
5,1,30,104,2,1.34,fatal,3,1,-1.34,109,24,5,1,0.3333202
5,1,30,117,2,1.34,plal,1,0,-1.34,110,299,6,1,0.5344794
5,1,30,140,3,1.34,ability,2,0,-1.34,111,139,5,1,0.4332679
5,1,30,33,1,1.34,kwerdged,1,0,-1.34,112,274,6,1,0.4999363
5,1,30,172,2,1.34,shoot,3,1,-1.34,113,27,5,1,0.4333097
5,1,30,132,1,1.34,sckroax,1,0,-1.34,114,283,6,1,0.4855432
5,1,30,101,3,1.34,slurms,1,0,-1.34,115,244,6,1,1.0016434
5,1,30,143,2,1.34,shrylk,1,0,-1.34,116,212,6,1,0.5510595
5,1,30,140,2,1.34,poetry,2,0,-1.34,117,125,5,1,0.6167215
5,1,30,69,1,1.34,sckermbth,1,0,-1.34,118,364,6,1,0.5832746
5,1,30,121,1,1.34,count,2,0,-1.34,119,182,5,1,0.4833313
5,1,30,41,3,1.34,massacre,3,0,-1.34,120,47,5,1,0.4832971
5,1,30,29,1,1.34,agony,3,-1,-1.34,121,86,5,1,0.5165263
5,1,30,143,3,1.34,thwaivvs,1,0,-1.34,122,342,6,1,0.5165473
5,1,30,68,2,1.34,beat,3,1,-1.34,123,15,5,1,0.4503884
5,1,30,41,3,1.34,shrylk,1,0,-1.34,124,245,6,1,0.5333638
5,1,30,143,3,1.34,mandate,2,0,-1.34,125,144,5,1,0.3999712
5,1,30,172,3,1.34,sckrerphth,1,0,-1.34,126,346,6,1,0.5000148
5,1,30,128,2,1.34,sckrerphth,1,0,-1.34,127,313,6,1,0.5165924
5,1,30,22,2,1.34,facilitate,2,0,-1.34,128,99,5,1,0.4999469
5,1,30,92,2,1.34,doom,3,1,-1.34,129,13,5,1,0.4167242
5,1,30,69,1,1.34,sckermbth,1,0,-1.34,130,265,6,1,0.4332829
5,1,30,63,1,1.34,murder,3,-1,-1.34,131,89,5,1,0.4166277
5,1,30,101,1,1.34,mutilated,3,-1,-1.34,132,87,5,1,0.500085
5,1,30,103,1,1.34,klorche,1,0,-1.34,133,294,6,1,0.5000096
5,1,30,123,2,1.34,injury,3,1,-1.34,134,1,5,1,0.4667116
5,1,30,63,2,1.34,torture,3,1,-1.34,135,28,5,1,0.533428
5,1,30,132,3,1.34,blood,3,0,-1.34,136,51,5,1,0.4000511
5,1,30,4,2,1.34,sckroax,1,0,-1.34,137,316,6,1,0.5165697
5,1,30,31,2,1.34,shoatt,1,0,-1.34,138,328,6,1,0.5833499
5,1,30,121,1,1.34,kill,3,-1,-1.34,139,83,5,1,0.4167262
5,1,30,12,2,1.34,meekes,1,0,-1.34,140,206,6,1,0.5331998
5,1,30,131,1,1.34,terrified,3,-1,-1.34,141,74,5,1,0.4166008
5,1,30,18,3,1.34,leaping,2,0,-1.34,142,143,5,1,0.4999677
5,1,30,18,2,1.34,open,2,0,-1.34,143,105,5,1,0.4000514
5,1,30,128,3,1.34,wheiche,1,0,-1.34,144,357,6,1,0.4999598
5,1,30,140,1,1.34,roller,2,0,-1.34,145,183,5,1,0.4499547
5,1,30,117,1,1.34,devil,3,-1,-1.34,146,77,5,1,0.3833006
5,1,30,26,1,1.34,wheiche,1,0,-1.34,147,291,6,1,0.5166169
5,1,30,29,3,1.34,terrified,3,0,-1.34,148,41,5,1,0.4832619
5,1,30,12,3,1.34,murder,3,0,-1.34,149,56,5,1,0.4665999
5,1,30,125,3,1.34,greet,2,0,-1.34,150,164,5,1,0.3666721
5,1,30,22,3,1.34,over,2,0,-1.34,151,137,5,1,0.6015737
5,1,30,130,2,1.34,death,3,1,-1.34,152,25,5,1,0.5000524
5,1,30,131,2,1.34,klorche,1,0,-1.34,153,228,6,1,0.5499666
5,1,30,105,1,1.34,kroit,1,0,-1.34,154,296,6,1,0.4833872
5,1,30,31,2,1.34,shoatt,1,0,-1.34,155,229,6,1,0.5014204
5,1,30,108,1,1.34,activities,2,0,-1.34,156,181,5,1,0.4832128
5,1,30,172,2,1.34,wheiche,1,0,-1.34,157,324,6,1,0.500039
5,1,30,143,2,1.34,shrylk,1,0,-1.34,158,311,6,1,0.4333152
5,1,30,108,3,1.34,clewm,1,0,-1.34,159,336,6,1,0.6672514
5,1,30,143,1,1.34,threat,3,-1,-1.34,160,66,5,1,0.4999625
5,1,30,128,2,1.34,choke,3,1,-1.34,161,16,5,1,0.4334022
5,1,30,140,1,1.34,jeeched,1,0,-1.34,162,381,5,0,1.0999226
5,1,30,131,3,1.34,intimated,3,0,-1.34,163,64,5,1,0.6998591
5,1,30,128,1,1.34,open,2,0,-1.34,164,171,5,1,0.3500572
5,1,30,125,2,1.34,zuinte,1,0,-1.34,165,202,6,1,0.4833806
5,1,30,105,3,1.34,formal,2,0,-1.34,166,134,5,1,0.4666486
5,1,30,41,2,1.34,stouged,1,0,-1.34,167,227,5,0,0.5999473
5,1,30,117,2,1.34,assault,3,1,-1.34,168,2,5,1,0.4832724
5,1,30,69,3,1.34,scroines,1,0,-1.34,169,257,6,1,0.5333679
5,1,30,12,3,1.34,comment,2,0,-1.34,170,155,5,1,0.5166973
5,1,30,141,2,1.34,evil,3,1,-1.34,171,10,5,1,0.350066
5,1,30,125,1,1.34,mandate,2,0,-1.34,172,177,5,1,0.3501076
5,1,30,68,3,1.34,klupsed,1,0,-1.34,173,231,6,1,0.5999524
5,1,30,21,3,1.34,kwerdged,1,0,-1.34,174,340,6,1,0.4832716
5,1,30,123,2,1.34,invited,2,0,-1.34,175,100,5,1,0.4000402
5,1,30,4,1,1.34,scroines,1,0,-1.34,176,290,6,1,0.4499154
5,1,30,108,3,1.34,open,2,0,-1.34,177,138,5,1,0.4833491
5,1,30,131,3,1.34,shoatt,1,0,-1.34,178,262,6,1,0.4832693
5,1,30,138,2,1.34,wound,3,1,-1.34,179,3,5,1,0.4499296
5,1,30,173,1,1.34,phone,2,0,-1.34,180,187,5,1,0.4499587
5,1,30,68,1,1.34,over,2,0,-1.34,181,170,5,1,0.3666157
5,1,30,173,1,1.34,surnd,1,0,-1.34,182,286,6,1,0.5666879
5,1,30,68,3,1.34,threat,3,0,-1.34,183,33,5,1,0.4165947
5,1,30,104,2,1.34,shreeff,1,0,-1.34,184,222,6,1,0.5333047
5,1,30,117,1,1.34,leaping,2,0,-1.34,185,176,5,1,0.433327
5,1,30,141,3,1.34,ghoond,1,0,-1.34,186,345,6,1,0.5166885
5,1,30,131,2,1.34,terrorized,3,1,-1.34,187,30,5,1,0.4332519
5,1,30,26,2,1.34,skwyft,1,0,-1.34,188,302,6,1,0.5000573
5,1,30,128,1,1.34,clewm,1,0,-1.34,189,369,6,1,0.5333577
5,1,30,105,2,1.34,thwaivvs,1,0,-1.34,190,309,6,1,0.4332037
5,1,30,21,3,1.34,kwerdged,1,0,-1.34,191,241,6,1,0.4667128
5,1,30,68,2,1.34,ghoond,1,0,-1.34,192,312,6,1,0.483333
5,1,30,128,3,1.34,wheiche,1,0,-1.34,193,258,6,1,0.4014869
5,1,30,104,1,1.34,beat,3,-1,-1.34,194,81,5,1,0.533254
5,1,30,92,2,1.34,slurms,1,0,-1.34,195,211,6,1,0.5670743
5,1,30,101,2,1.34,surnd,1,0,-1.34,196,220,6,1,0.4833049
5,1,30,123,2,1.34,sckermbth,1,0,-1.34,197,199,6,1,0.4348057
5,1,30,108,1,1.34,sckrerphth,1,0,-1.34,198,379,6,1,0.4500807
5,1,30,132,3,1.34,jeeched,1,0,-1.34,199,348,6,1,0.516723
5,1,30,101,3,1.34,doom,3,0,-1.34,200,46,5,1,0.4676796
5,1,30,138,1,1.34,runner,2,0,-1.34,201,179,5,1,0.433394
5,1,30,63,1,1.34,comment,2,0,-1.34,202,188,5,1,0.4666808
5,1,30,123,3,1.34,shreeff,1,0,-1.34,203,255,6,1,0.5999551
5,1,30,128,3,1.34,shoot,3,0,-1.34,204,60,5,1,0.5332656
5,1,30,69,3,1.34,agonized,3,0,-1.34,205,59,5,1,0.4166069
5,1,30,125,3,1.34,kroit,1,0,-1.34,206,263,6,1,0.5666279
5,1,30,125,1,1.34,hate,3,-1,-1.34,207,78,5,1,0.4333951
5,1,30,31,3,1.34,silent,2,0,-1.34,208,151,5,1,0.4499592
5,1,30,21,2,1.34,troaphed,1,0,-1.34,209,215,6,1,0.5666156
5,1,30,173,1,1.34,surnd,1,0,-1.34,210,385,6,1,0.533349
5,1,30,108,1,1.34,choke,3,-1,-1.34,211,82,6,0,0.4166146
5,1,30,138,1,1.34,massacre,3,-1,-1.34,212,80,5,1,0.5167097
5,1,30,105,3,1.34,assault,3,0,-1.34,213,35,5,1,0.4666913
5,1,30,105,1,1.34,greet,2,0,-1.34,214,197,5,1,0.5499629
5,1,30,141,1,1.34,bleills,1,0,-1.34,215,370,6,1,0.5834175
5,1,30,130,2,1.34,swizned,1,0,-1.34,216,223,6,1,0.6499109
5,1,30,4,1,1.34,agonized,3,-1,-1.34,217,92,5,1,0.4998986
5,1,30,143,3,1.34,thwaivvs,1,0,-1.34,218,243,6,1,0.5166095
5,1,30,123,2,1.34,sckermbth,1,0,-1.34,219,298,6,1,0.5667067
5,1,30,21,3,1.34,warm,2,0,-1.34,220,142,5,1,0.4833322
5,1,30,138,3,1.34,gwelched,1,0,-1.34,221,358,6,1,0.5333098
5,1,30,31,3,1.34,strangle,3,0,-1.34,222,52,5,1,0.416572
5,1,30,173,2,1.34,sckwug,1,0,-1.34,223,317,6,1,0.5332564
5,1,30,4,2,1.34,sckroax,1,0,-1.34,224,217,6,1,0.5334158
5,1,30,33,2,1.34,comment,2,0,-1.34,225,122,5,1,0.500034
5,1,30,103,3,1.34,mutilated,3,0,-1.34,226,54,5,1,0.5832738
5,1,30,105,3,1.34,plal,1,0,-1.34,227,332,6,1,0.6331977
5,1,30,92,2,1.34,signals,2,0,-1.34,228,112,5,1,0.4673752
5,1,30,21,2,1.34,troaphed,1,0,-1.34,229,314,6,1,1.0498581
5,1,30,33,1,1.34,evil,3,-1,-1.34,230,76,5,1,0.4667265
5,1,30,125,2,1.34,customer,2,0,-1.34,231,103,5,1,0.4499596
5,1,30,26,3,1.34,surnd,1,0,-1.34,232,253,6,1,0.5999508
5,1,30,101,2,1.34,scream,3,1,-1.34,233,22,5,1,0.5999556
5,1,30,123,3,1.34,fatal,3,0,-1.34,234,57,5,1,0.5340054
5,1,30,41,3,1.34,shrylk,1,0,-1.34,235,344,6,1,0.5499609
5,1,30,68,3,1.34,facilitate,2,0,-1.34,236,132,5,1,0.483293
5,1,30,101,3,1.34,slurms,1,0,-1.34,237,343,6,1,0.6499319
5,1,30,92,3,1.34,troaphed,1,0,-1.34,238,248,6,1,0.8500091
5,1,30,41,3,1.34,runner,2,0,-1.34,239,146,5,1,0.3833694
5,1,30,26,3,1.34,scream,3,0,-1.34,240,55,5,1,0.4166011
5,1,30,18,3,1.34,pawp,1,0,-1.34,241,242,6,1,0.583306
5,1,30,117,2,1.34,formal,2,0,-1.34,242,101,5,1,0.4499933
5,1,30,141,2,1.34,warm,2,0,-1.34,243,109,5,1,0.4500854
5,1,30,18,3,1.34,devil,3,0,-1.34,244,44,5,1,0.4682697
5,1,30,108,3,1.34,clewm,1,0,-1.34,245,237,5,0,0.3833113
5,1,30,173,2,1.34,agony,3,1,-1.34,246,20,5,1,0.5499369
5,1,30,26,2,1.34,violence,3,1,-1.34,247,5,5,1,0.4999685
5,1,30,117,1,1.34,pawp,1,0,-1.34,248,275,6,1,0.5166381
5,1,30,103,2,1.34,jeeched,1,0,-1.34,249,315,6,1,0.7500534
5,1,30,108,1,1.34,sckrerphth,1,0,-1.34,250,280,6,1,0.5333564
5,1,30,105,3,1.34,plal,1,0,-1.34,251,233,6,1,0.5999031
5,1,30,132,3,1.34,roller,2,0,-1.34,252,150,5,1,0.5004122
5,1,30,108,3,1.34,suffering,3,0,-1.34,253,39,5,1,0.5667137
5,1,30,125,3,1.34,kroit,1,0,-1.34,254,362,6,1,0.5166617
5,1,30,173,3,1.34,slash,3,0,-1.34,255,62,5,1,0.4500584
5,1,30,29,2,1.34,kroit,1,0,-1.34,256,329,6,1,0.5499766
5,1,30,31,1,1.34,shreeff,1,0,-1.34,257,387,5,0,0.416681
5,1,30,141,1,1.34,bleills,1,0,-1.34,258,271,6,1,0.566542
5,1,30,4,3,1.34,puppet,2,0,-1.34,259,152,5,1,0.6026112
5,1,30,143,2,1.34,runner,2,0,-1.34,260,113,5,1,0.4665767
5,1,30,63,2,1.34,gwelched,1,0,-1.34,261,325,6,1,1.6499923
5,1,30,41,1,1.34,stouged,1,0,-1.34,262,293,5,0,1.0499557
5,1,30,121,2,1.34,threatened,3,1,-1.34,263,7,5,1,0.5666957
5,1,30,33,3,1.34,thwipte,1,0,-1.34,264,339,6,1,0.5166097
5,1,30,131,2,1.34,klorche,1,0,-1.34,265,327,6,1,0.616635
5,1,30,121,3,1.34,sckermbth,1,0,-1.34,266,232,6,1,0.4333267
5,1,30,4,2,1.34,strangle,3,1,-1.34,267,19,5,1,0.4666472
5,1,30,33,3,1.34,thwipte,1,0,-1.34,268,240,6,1,0.5499229
5,1,30,101,1,1.34,staufed,1,0,-1.34,269,285,6,1,0.5500534
5,1,30,117,3,1.34,death,3,0,-1.34,270,58,5,1,0.4671474
5,1,30,68,2,1.34,art,2,0,-1.34,271,114,5,1,0.4499895
5,1,30,130,3,1.34,gulged,1,0,-1.34,272,333,5,0,0.6332297
5,1,30,69,2,1.34,mutilated,3,1,-1.34,273,21,5,1,0.4333222
5,1,30,104,3,1.34,zuinte,1,0,-1.34,274,235,6,1,0.5166584
5,1,30,123,1,1.34,swizned,1,0,-1.34,275,289,6,1,0.4999638
5,1,30,101,2,1.34,surnd,1,0,-1.34,276,319,6,1,0.4838737
5,1,30,22,1,1.34,customer,2,0,-1.34,277,169,5,1,0.4665701
5,1,30,131,3,1.34,shoatt,1,0,-1.34,278,361,6,1,0.5000406
5,1,30,173,3,1.34,win,2,0,-1.34,279,161,5,1,0.5333134
5,1,30,130,2,1.34,swizned,1,0,-1.34,280,322,6,1,0.4998813
5,1,30,92,1,1.34,gwelched,1,0,-1.34,281,292,5,0,0.850048
5,1,30,12,1,1.34,intimated,3,-1,-1.34,282,97,5,1,0.5499668
5,1,30,29,1,1.34,sckwug,1,0,-1.34,283,383,6,1,0.5000547
5,1,30,103,2,1.34,blood,3,1,-1.34,284,18,5,1,0.4334203
5,1,30,31,1,1.34,fatal,3,-1,-1.34,285,90,5,1,0.4166126
5,1,30,104,2,1.34,retold,2,0,-1.34,286,123,5,1,0.4167042
5,1,30,31,2,1.34,intimated,3,1,-1.34,287,31,5,1,0.3999397
5,1,30,132,2,1.34,leaping,2,0,-1.34,288,110,5,1,0.383261
5,1,30,105,2,1.34,mandate,2,0,-1.34,289,111,5,1,0.4667332
5,1,30,172,3,1.34,sckrerphth,1,0,-1.34,290,247,6,1,0.4499563
5,1,30,108,2,1.34,thwipte,1,0,-1.34,291,306,6,1,0.5666991
5,1,30,22,3,1.34,skwyft,1,0,-1.34,292,236,6,1,0.5332189
5,1,30,101,1,1.34,staufed,1,0,-1.34,293,384,6,1,0.4833844
5,1,30,69,3,1.34,poetry,2,0,-1.34,294,158,5,1,0.5684204
5,1,30,173,3,1.34,stouged,1,0,-1.34,295,359,5,0,0.4832869
5,1,30,18,1,1.34,plal,1,0,-1.34,296,365,6,1,0.6333511
5,1,30,26,3,1.34,phone,2,0,-1.34,297,154,5,1,0.4666869
5,1,30,26,2,1.34,skwyft,1,0,-1.34,298,203,6,1,0.5167266
5,1,30,31,2,1.34,prize,2,0,-1.34,299,130,5,1,0.566705
5,1,30,12,2,1.34,terrified,3,1,-1.34,300,8,5,1,0.4666963
5,1,30,104,1,1.34,ghoond,1,0,-1.34,301,378,6,1,0.5334521
5,1,30,128,2,1.34,sckrerphth,1,0,-1.34,302,214,6,1,0.5832845
5,1,30,4,1,1.34,scroines,1,0,-1.34,303,389,6,1,0.5832697
5,1,30,41,1,1.34,slash,3,-1,-1.34,304,95,5,1,0.3832998
5,1,30,131,1,1.34,meekes,1,0,-1.34,305,272,6,1,0.6499446
5,1,30,138,2,1.34,process,2,0,-1.34,306,102,5,1,0.4339981
5,1,30,104,3,1.34,customer,2,0,-1.34,307,136,5,1,0.4333316
5,1,30,26,1,1.34,satisfied,2,0,-1.34,308,192,5,1,0.3834173
5,1,30,173,2,1.34,puppet,2,0,-1.34,309,119,5,1,0.3999258
5,1,30,21,2,1.34,kill,3,1,-1.34,310,17,5,1,0.4167117
5,1,30,63,3,1.34,terrorized,3,0,-1.34,311,63,5,1,0.4343917
5,1,30,22,1,1.34,stab,3,-1,-1.34,312,70,5,1,0.3832211
5,1,30,63,2,1.34,gwelched,1,0,-1.34,313,226,5,0,0.8332694
5,1,30,63,3,1.34,klorche,1,0,-1.34,314,261,6,1,0.5165644
5,1,30,125,2,1.34,stab,3,1,-1.34,315,4,5,1,0.6165654
5,1,30,128,1,1.34,suffering,3,-1,-1.34,316,72,5,1,0.549964
5,1,30,41,2,1.34,win,2,0,-1.34,317,128,5,1,0.3999247
5,1,30,103,2,1.34,roller,2,0,-1.34,318,117,5,1,0.4166905
5,1,30,21,1,1.34,gulged,1,0,-1.34,319,267,5,0,0.6332626
5,1,30,26,1,1.34,shoot,3,-1,-1.34,320,93,5,1,0.4665703
5,1,30,22,1,1.34,zuinte,1,0,-1.34,321,367,6,1,0.5499522
5,1,30,101,2,1.34,phone,2,0,-1.34,322,121,5,1,0.4666205
5,1,30,117,1,1.34,pawp,1,0,-1.34,323,374,6,1,0.550059
5,1,30,29,3,1.34,modulation,2,0,-1.34,324,140,5,1,0.6666917
5,1,30,138,1,1.34,shrylk,1,0,-1.34,325,278,6,1,0.516712
5,1,30,4,3,1.34,agony,3,0,-1.34,326,53,5,1,0.5167223
5,1,30,138,3,1.34,concert,2,0,-1.34,327,160,5,1,0.4666378
5,1,30,29,1,1.34,sckwug,1,0,-1.34,328,284,6,1,0.5848358
5,1,30,141,2,1.34,kwerdged,1,0,-1.34,329,307,6,1,0.533387
5,1,30,172,2,1.34,wheiche,1,0,-1.34,330,225,6,1,0.4499861
5,1,30,117,3,1.34,swizned,1,0,-1.34,331,256,6,1,0.4666133
5,1,30,33,3,1.34,panicky,3,0,-1.34,332,42,5,1,0.7166167
5,1,30,121,2,1.34,ability,2,0,-1.34,333,106,5,1,0.450054
5,1,30,125,1,1.34,thwaivvs,1,0,-1.34,334,276,6,1,0.5832777
5,1,30,22,3,1.34,skwyft,1,0,-1.34,335,335,6,1,0.6165753
5,1,30,26,2,1.34,over,2,0,-1.34,336,104,5,1,0.5668411
5,1,30,125,1,1.34,thwaivvs,1,0,-1.34,337,375,6,1,0.5501102
5,1,30,104,2,1.34,shreeff,1,0,-1.34,338,321,6,1,0.5832765
5,1,30,117,3,1.34,swizned,1,0,-1.34,339,355,6,1,0.5333189
5,1,30,132,2,1.34,pawp,1,0,-1.34,340,308,6,1,0.4666135
5,1,30,103,3,1.34,staufed,1,0,-1.34,341,351,6,1,0.4832108
5,1,30,29,2,1.34,kroit,1,0,-1.34,342,230,6,1,0.5020156
5,1,30,103,2,1.34,jeeched,1,0,-1.34,343,216,6,1,0.6667069
5,1,30,21,3,1.34,evil,3,0,-1.34,344,43,5,1,0.6332893
5,1,30,101,3,1.34,signals,2,0,-1.34,345,145,5,1,0.5166548
5,1,30,105,1,1.34,victimized,3,-1,-1.34,346,98,5,1,0.4345768
5,1,30,123,3,1.34,retold,2,0,-1.34,347,156,5,1,0.4680349
5,1,30,22,2,1.34,threat,3,1,-1.34,348,0,5,1,0.4166749
5,1,30,121,1,1.34,troaphed,1,0,-1.34,349,380,5,0,0.3665572
5,1,30,22,2,1.34,klupsed,1,0,-1.34,350,297,6,1,0.6499546
5,1,30,33,3,1.34,sitter,2,0,-1.34,351,141,5,1,0.6332805
5,1,30,130,2,1.34,leisure,2,0,-1.34,352,124,5,1,0.533263
5,1,30,121,1,1.34,troaphed,1,0,-1.34,353,281,6,1,0.6667238
5,1,30,141,3,1.34,beat,3,0,-1.34,354,48,5,1,0.4332956
5,1,30,101,1,1.34,assimilated,2,0,-1.34,355,186,5,1,0.5016275
5,1,30,26,3,1.34,surnd,1,0,-1.34,356,352,6,1,0.5833118
5,1,30,132,1,1.34,sckroax,1,0,-1.34,357,382,6,1,0.6339102
5,1,30,130,1,1.34,slurms,1,0,-1.34,358,277,6,1,0.5333051
5,1,30,63,2,1.34,concert,2,0,-1.34,359,127,5,1,0.4832188
5,1,30,131,1,1.34,meekes,1,0,-1.34,360,371,5,0,0.7832783
5,1,30,68,3,1.34,klupsed,1,0,-1.34,361,330,6,1,0.5332748
5,1,30,140,1,1.34,blood,3,-1,-1.34,362,84,5,1,0.5498837
5,1,30,105,1,1.34,kroit,1,0,-1.34,363,395,6,1,0.5165603
5,1,30,123,1,1.34,swizned,1,0,-1.34,364,388,6,1,0.5665575
5,1,30,29,2,1.34,greet,2,0,-1.34,365,131,5,1,0.6666328
5,1,30,117,3,1.34,leisure,2,0,-1.34,366,157,5,1,0.5166168
5,1,30,12,1,1.34,shoatt,1,0,-1.34,367,394,6,1,0.549948
5,1,30,103,3,1.34,staufed,1,0,-1.34,368,252,6,1,0.5333235
5,1,30,18,1,1.34,plal,1,0,-1.34,369,266,6,1,0.5838482
5,1,30,22,2,1.34,klupsed,1,0,-1.34,370,198,6,1,0.5499719
5,1,30,12,3,1.34,wraxte,1,0,-1.34,371,353,6,1,0.467861
5,1,30,123,1,1.34,death,3,-1,-1.34,372,91,5,1,0.5332632
5,1,30,141,1,1.34,ability,2,0,-1.34,373,172,5,1,0.5499925
5,1,30,108,2,1.34,panicky,3,1,-1.34,374,9,5,1,0.4333444
5,1,30,125,3,1.34,victimized,3,0,-1.34,375,65,5,1,0.4167122
5,1,30,103,1,1.34,refuge,2,0,-1.34,376,195,5,1,0.4167365
5,1,30,141,3,1.34,ghoond,1,0,-1.34,377,246,6,1,0.59994
5,1,30,92,3,1.34,troaphed,1,0,-1.34,378,347,6,1,0.5167545
5,1,30,4,3,1.34,sckwug,1,0,-1.34,379,251,6,1,0.4667332
5,1,30,140,3,1.34,bleills,1,0,-1.34,380,238,6,1,0.4333071
5,1,30,18,1,1.34,assault,3,-1,-1.34,381,68,5,1,0.6666087
5,1,30,173,2,1.34,sckwug,1,0,-1.34,382,218,6,1,0.5500533
5,1,30,143,1,1.34,klupsed,1,0,-1.34,383,264,6,1,0.483255
5,1,30,130,3,1.34,gulged,1,0,-1.34,384,234,5,0,0.5998767
5,1,30,173,1,1.34,scream,3,-1,-1.34,385,88,5,1,0.4832658
5,1,30,12,2,1.34,meekes,1,0,-1.34,386,305,5,0,0.7179328
5,1,30,31,3,1.34,sckroax,1,0,-1.34,387,250,6,1,0.5186181
5,1,30,140,2,1.34,scroines,1,0,-1.34,388,224,6,1,0.4334906
5,1,30,92,1,1.34,gwelched,1,0,-1.34,389,391,6,1,1.2665753
5,1,30,138,2,1.34,gulged,1,0,-1.34,390,300,5,0,0.5500457
5,1,30,92,2,1.34,slurms,1,0,-1.34,391,310,6,1,0.6166756
5,1,30,130,1,1.34,doom,3,-1,-1.34,392,79,5,1,0.4844429
5,1,30,69,2,1.34,staufed,1,0,-1.34,393,219,6,1,0.5850969
5,1,30,104,3,1.34,zuinte,1,0,-1.34,394,334,6,1,0.4999308
5,1,30,140,2,1.34,scroines,1,0,-1.34,395,323,6,1,0.716718
6,2,30,117,1,1.34,leaping,2,0,-1.34,0,176,6,1,0.6333496
6,2,30,138,1,1.34,shrylk,1,0,-1.34,1,377,5,1,0.6167046
6,2,30,130,2,1.34,leisure,2,0,-1.34,2,124,6,1,0.5667118
6,2,30,143,1,1.34,klupsed,1,0,-1.34,3,363,5,1,0.5666994
6,2,30,33,2,1.34,comment,2,0,-1.34,4,122,6,1,0.533393
6,2,30,130,2,1.34,swizned,1,0,-1.34,5,223,5,1,0.601423
6,2,30,26,3,1.34,phone,2,0,-1.34,6,154,6,1,0.5332578
6,2,30,141,3,1.34,art,2,0,-1.34,7,147,6,1,0.5832614
6,2,30,130,1,1.34,signals,2,0,-1.34,8,178,6,1,0.5166993
6,2,30,69,3,1.34,scroines,1,0,-1.34,9,356,5,1,0.6832357
6,2,30,63,2,1.34,torture,3,1,-1.34,10,28,6,1,0.4832226
6,2,30,143,1,1.34,facilitate,2,0,-1.34,11,165,6,1,0.6499372
6,2,30,92,1,1.34,gwelched,1,0,-1.34,12,292,5,1,0.6666777
6,2,30,132,1,1.34,sckroax,1,0,-1.34,13,283,5,1,0.6666849
6,2,30,104,3,1.34,customer,2,0,-1.34,14,136,6,1,0.4500337
6,2,30,18,2,1.34,suffering,3,1,-1.34,15,6,6,1,0.4833445
6,2,30,31,3,1.34,silent,2,0,-1.34,16,151,6,1,0.5166086
6,2,30,138,3,1.34,gwelched,1,0,-1.34,17,358,5,1,0.5832963
6,2,30,128,1,1.34,clewm,1,0,-1.34,18,369,5,1,0.5832197
6,2,30,138,2,1.34,gulged,1,0,-1.34,19,300,5,1,0.7166576
6,2,30,68,3,1.34,facilitate,2,0,-1.34,20,132,6,1,0.4334036
6,2,30,21,2,1.34,count,2,0,-1.34,21,116,6,1,0.5667249
6,2,30,12,3,1.34,murder,3,0,-1.34,22,56,6,1,0.5000622
6,2,30,141,1,1.34,bleills,1,0,-1.34,23,271,5,1,0.5666402
6,2,30,101,1,1.34,assimilated,2,0,-1.34,24,186,6,1,0.8666131
6,2,30,141,1,1.34,threatened,3,-1,-1.34,25,73,6,1,0.5665236
6,2,30,18,2,1.34,clewm,1,0,-1.34,26,204,5,1,0.6165528
6,2,30,69,2,1.34,assimilated,2,0,-1.34,27,120,6,1,0.5666551
6,2,30,104,3,1.34,stab,3,0,-1.34,28,37,6,1,0.8165076
6,2,30,18,1,1.34,plal,1,0,-1.34,29,365,5,1,0.6998347
6,2,30,108,2,1.34,thwipte,1,0,-1.34,30,207,5,1,0.649942
6,2,30,132,3,1.34,roller,2,0,-1.34,31,150,6,1,0.5668248
6,2,30,117,2,1.34,assault,3,1,-1.34,32,2,6,1,0.5010977
6,2,30,125,2,1.34,zuinte,1,0,-1.34,33,202,5,1,0.5499346
6,2,30,101,3,1.34,slurms,1,0,-1.34,34,244,5,1,0.6165734
6,2,30,140,2,1.34,scroines,1,0,-1.34,35,224,5,1,0.583272
6,2,30,4,2,1.34,sckroax,1,0,-1.34,36,217,5,1,0.5166017
6,2,30,130,3,1.34,process,2,0,-1.34,37,135,6,1,0.4499374
6,2,30,132,2,1.34,leaping,2,0,-1.34,38,110,6,1,0.4832779
6,2,30,123,1,1.34,swizned,1,0,-1.34,39,289,5,1,0.5844019
6,2,30,18,2,1.34,open,2,0,-1.34,40,105,6,1,0.5499559
6,2,30,4,2,1.34,strangle,3,1,-1.34,41,19,6,1,0.7000289
6,2,30,125,1,1.34,thwaivvs,1,0,-1.34,42,276,5,1,0.5500321
6,2,30,140,1,1.34,blood,3,-1,-1.34,43,84,6,1,0.6166144
6,2,30,123,1,1.34,death,3,-1,-1.34,44,91,6,1,0.4999312
6,2,30,29,3,1.34,meekes,1,0,-1.34,45,338,5,1,0.6332859
6,2,30,141,2,1.34,warm,2,0,-1.34,46,109,6,1,0.4666177
6,2,30,123,2,1.34,sckermbth,1,0,-1.34,47,199,5,1,0.4667362
6,2,30,63,3,1.34,klorche,1,0,-1.34,48,360,5,1,0.5006413
6,2,30,121,1,1.34,troaphed,1,0,-1.34,49,281,5,1,0.5999436
6,2,30,22,2,1.34,klupsed,1,0,-1.34,50,297,5,1,0.5167332
6,2,30,18,3,1.34,devil,3,0,-1.34,51,44,6,1,0.5999532
6,2,30,173,2,1.34,sckwug,1,0,-1.34,52,317,5,1,0.5666848
6,2,30,105,3,1.34,formal,2,0,-1.34,53,134,6,1,0.5166409
6,2,30,22,1,1.34,zuinte,1,0,-1.34,54,268,5,1,0.5180183
6,2,30,26,2,1.34,over,2,0,-1.34,55,104,6,1,0.4502371
6,2,30,123,2,1.34,sckermbth,1,0,-1.34,56,298,5,1,0.5017261
6,2,30,33,2,1.34,murder,3,1,-1.34,57,23,6,1,0.4332428
6,2,30,22,2,1.34,facilitate,2,0,-1.34,58,99,6,1,0.5332677
6,2,30,104,2,1.34,fatal,3,1,-1.34,59,24,6,1,0.449875
6,2,30,103,1,1.34,klorche,1,0,-1.34,60,294,5,1,0.4999533
6,2,30,26,3,1.34,scream,3,0,-1.34,61,55,6,1,0.5681724
6,2,30,173,3,1.34,stouged,1,0,-1.34,62,260,5,1,0.5499599
6,2,30,18,3,1.34,pawp,1,0,-1.34,63,341,5,1,0.6665826
6,2,30,121,3,1.34,invited,2,0,-1.34,64,133,6,1,0.5666026
6,2,30,108,1,1.34,choke,3,-1,-1.34,65,82,6,1,0.6832894
6,2,30,143,3,1.34,thwaivvs,1,0,-1.34,66,243,5,1,0.499974
6,2,30,21,1,1.34,process,2,0,-1.34,67,168,6,1,0.4999803
6,2,30,29,2,1.34,kroit,1,0,-1.34,68,230,5,1,0.5165139
6,2,30,63,1,1.34,wraxte,1,0,-1.34,69,287,5,1,0.5667447
6,2,30,18,2,1.34,clewm,1,0,-1.34,70,303,5,1,0.4833238
6,2,30,172,1,1.34,thwipte,1,0,-1.34,71,273,5,1,0.4165936
6,2,30,132,3,1.34,blood,3,0,-1.34,72,51,6,1,0.3845115
6,2,30,104,2,1.34,shreeff,1,0,-1.34,73,222,5,1,0.6166762
6,2,30,131,3,1.34,prize,2,0,-1.34,74,163,6,1,0.5667198
6,2,30,103,1,1.34,terrorized,3,-1,-1.34,75,96,6,1,0.5344533
6,2,30,132,1,1.34,silent,2,0,-1.34,76,184,6,1,0.4666865
6,2,30,132,1,1.34,sckroax,1,0,-1.34,77,382,5,1,0.5332967
6,2,30,101,1,1.34,staufed,1,0,-1.34,78,384,5,1,0.5166528
6,2,30,141,2,1.34,evil,3,1,-1.34,79,10,6,1,0.5832472
6,2,30,69,1,1.34,sckermbth,1,0,-1.34,80,364,5,1,0.5999399
6,2,30,132,2,1.34,pawp,1,0,-1.34,81,209,5,1,0.5000275
6,2,30,108,1,1.34,sckrerphth,1,0,-1.34,82,379,5,1,0.5499846
6,2,30,131,2,1.34,klorche,1,0,-1.34,83,228,5,1,0.4666689
6,2,30,143,3,1.34,hate,3,0,-1.34,84,45,6,1,0.5332724
6,2,30,172,2,1.34,wheiche,1,0,-1.34,85,324,5,1,0.5833054
6,2,30,140,1,1.34,roller,2,0,-1.34,86,183,6,1,0.533407
6,2,30,103,2,1.34,jeeched,1,0,-1.34,87,216,5,1,0.6833924
6,2,30,12,2,1.34,modulation,2,0,-1.34,88,107,6,1,0.5166241
6,2,30,12,3,1.34,wraxte,1,0,-1.34,89,254,5,1,0.6000381
6,2,30,138,2,1.34,process,2,0,-1.34,90,102,6,1,0.4511556
6,2,30,140,1,1.34,jeeched,1,0,-1.34,91,381,5,1,0.5000464
6,2,30,104,2,1.34,shreeff,1,0,-1.34,92,321,5,1,0.5832036
6,2,30,123,1,1.34,leisure,2,0,-1.34,93,190,6,1,0.5667104
6,2,30,172,2,1.34,satisfied,2,0,-1.34,94,126,6,1,0.5336779
6,2,30,125,3,1.34,kroit,1,0,-1.34,95,362,5,1,0.6165764
6,2,30,26,2,1.34,skwyft,1,0,-1.34,96,203,5,1,0.533325
6,2,30,105,2,1.34,mandate,2,0,-1.34,97,111,6,1,0.500946
6,2,30,143,2,1.34,shrylk,1,0,-1.34,98,212,5,1,0.5333693
6,2,30,68,2,1.34,ghoond,1,0,-1.34,99,312,5,1,0.6165503
6,2,30,69,3,1.34,agonized,3,0,-1.34,100,59,6,1,0.8166132
6,2,30,143,2,1.34,shrylk,1,0,-1.34,101,311,5,1,0.7000167
6,2,30,29,3,1.34,terrified,3,0,-1.34,102,41,6,1,0.5499376
6,2,30,128,2,1.34,sckrerphth,1,0,-1.34,103,313,5,1,0.516688
6,2,30,69,1,1.34,injury,3,-1,-1.34,104,67,6,1,0.4500323
6,2,30,33,3,1.34,thwipte,1,0,-1.34,105,240,5,1,0.5000284
6,2,30,108,3,1.34,clewm,1,0,-1.34,106,336,5,1,0.6166822
6,2,30,31,3,1.34,sckroax,1,0,-1.34,107,250,5,1,0.6833495
6,2,30,117,2,1.34,formal,2,0,-1.34,108,101,6,1,0.4332741
6,2,30,68,3,1.34,klupsed,1,0,-1.34,109,231,5,1,0.5165379
6,2,30,41,2,1.34,win,2,0,-1.34,110,128,6,1,0.4501443
6,2,30,4,3,1.34,sckwug,1,0,-1.34,111,251,5,1,0.5167064
6,2,30,22,2,1.34,threat,3,1,-1.34,112,0,6,1,0.5831878
6,2,30,92,2,1.34,slurms,1,0,-1.34,113,211,5,1,0.4833527
6,2,30,130,3,1.34,wound,3,0,-1.34,114,36,6,1,0.5166632
6,2,30,101,2,1.34,scream,3,1,-1.34,115,22,6,1,0.4499726
6,2,30,138,2,1.34,wound,3,1,-1.34,116,3,6,1,0.3833227
6,2,30,132,3,1.34,jeeched,1,0,-1.34,117,249,5,1,0.4666055
6,2,30,172,3,1.34,choke,3,0,-1.34,118,49,6,1,0.5500094
6,2,30,173,3,1.34,win,2,0,-1.34,119,161,6,1,0.4334057
6,2,30,128,2,1.34,choke,3,1,-1.34,120,16,6,1,0.4334193
6,2,30,68,1,1.34,skwyft,1,0,-1.34,121,368,5,1,0.4674526
6,2,30,21,3,1.34,kwerdged,1,0,-1.34,122,340,5,1,0.799972
6,2,30,21,1,1.34,gulged,1,0,-1.34,123,366,5,1,0.9332996
6,2,30,132,1,1.34,strangle,3,-1,-1.34,124,85,6,1,0.4999331
6,2,30,18,3,1.34,pawp,1,0,-1.34,125,242,5,1,0.6666872
6,2,30,117,1,1.34,pawp,1,0,-1.34,126,374,5,1,0.4667327
6,2,30,41,2,1.34,stouged,1,0,-1.34,127,227,6,0,0.5332602
6,2,30,31,2,1.34,shoatt,1,0,-1.34,128,229,5,1,0.5999552
6,2,30,173,1,1.34,surnd,1,0,-1.34,129,286,5,1,0.7500453
6,2,30,128,2,1.34,sckrerphth,1,0,-1.34,130,214,5,1,0.5500803
6,2,30,108,3,1.34,clewm,1,0,-1.34,131,237,5,1,0.6015696
6,2,30,138,1,1.34,shrylk,1,0,-1.34,132,278,5,1,0.4333091
6,2,30,128,1,1.34,suffering,3,-1,-1.34,133,72,6,1,0.5667546
6,2,30,18,1,1.34,assault,3,-1,-1.34,134,68,6,1,0.4666761
6,2,30,31,1,1.34,shreeff,1,0,-1.34,135,288,5,1,0.5666735
6,2,30,63,3,1.34,klorche,1,0,-1.34,136,261,5,1,0.3999106
6,2,30,143,3,1.34,mandate,2,0,-1.34,137,144,6,1,0.5999562
6,2,30,68,3,1.34,klupsed,1,0,-1.34,138,330,5,1,0.6499714
6,2,30,92,1,1.34,concert,2,0,-1.34,139,193,6,1,0.5832551
6,2,30,173,1,1.34,phone,2,0,-1.34,140,187,6,1,0.6499471
6,2,30,41,1,1.34,stouged,1,0,-1.34,141,293,5,1,1.1499097
6,2,30,26,1,1.34,wheiche,1,0,-1.34,142,291,5,1,0.6499967
6,2,30,117,1,1.34,pawp,1,0,-1.34,143,275,5,1,0.4666901
6,2,30,18,3,1.34,leaping,2,0,-1.34,144,143,6,1,0.5333065
6,2,30,131,2,1.34,refuge,2,0,-1.34,145,129,6,1,0.6673999
6,2,30,21,1,1.34,gulged,1,0,-1.34,146,267,5,1,0.6499264
6,2,30,117,3,1.34,swizned,1,0,-1.34,147,256,5,1,0.5667297
6,2,30,123,3,1.34,fatal,3,0,-1.34,148,57,6,1,0.5833009
6,2,30,31,1,1.34,fatal,3,-1,-1.34,149,90,6,1,0.5832503
6,2,30,125,1,1.34,thwaivvs,1,0,-1.34,150,375,5,1,0.5667146
6,2,30,29,1,1.34,puppet,2,0,-1.34,151,185,6,1,0.5832578
